x,y,z,GPS_t,linear_acc_x,linear_acc_y,linear_acc_z,angular_vel_x,angular_vel_y,angular_vel_z,IMU_t
0.0,0.0,0.0,1678123076.5524979,1.7717092285156248,-0.584185205078125,7.864952453613281,0.029960562263391426,-0.05645901510967985,0.008655273542757524,1678123076.5514102
0.0,0.0,0.0,1678123076.652383,2.437297290039062,-0.8044517578125,10.060435375976562,0.03648530693408556,-0.03289003946247859,-0.010253170196805066,1678123076.5614886
0.0,0.0,0.0,1678123076.7524145,3.066972326660156,1.4891934326171874,7.340622290039062,0.051265850984025335,-0.02157160482964183,-0.042876893550275734,1678123076.571274
1.3421112940413877,0.14683626778423786,0.053691343404352665,1678123076.8694322,2.5641899780273434,-1.4820108276367188,7.747636572265624,0.03874899386065292,-0.005459480234662438,0.03209109113545482,1678123076.5814142
1.3421112940413877,0.14683626778423786,0.053691343404352665,1678123076.9525406,1.1444283935546875,-0.18435352783203124,7.611167077636718,0.03795004553362914,0.002663161090079238,-0.008921589651765448,1678123076.5912704
1.3421112940413877,0.14683626778423786,0.053691343404352665,1678123077.052384,0.6512228515624999,0.3184288208007812,8.542511523437499,0.0709732430506117,0.01597896654047543,0.0021305288720633903,1678123076.6013088
1.3421112940413877,0.14683626778423786,0.053691343404352665,1678123077.152316,0.38786066894531246,0.21068974609375,8.008604553222655,0.034088461953014244,0.0031957933080950856,-0.04554005464035497,1678123076.6115775
1.3421112940413877,0.14683626778423786,0.053691343404352665,1678123077.2532852,-1.0438719238281249,0.16280571289062498,10.002974536132811,0.04767058351241837,-0.008255799379245638,-0.0035952674716069714,1678123076.621306
1.3421112940413877,0.14683626778423786,0.053691343404352665,1678123077.3541024,-2.070984436035156,-2.04943662109375,10.103531005859374,0.039414784133172724,-0.029827404208887465,0.06844324001503642,1678123076.6313338
1.3421112940413877,0.14683626778423786,0.053691343404352665,1678123077.4525282,-1.0917559570312498,-1.158793603515625,10.496180078124999,0.034354778062022175,-0.03874899386065292,0.03475425222553406,1678123076.6431522
1.3421112940413877,0.14683626778423786,0.053691343404352665,1678123077.5526898,0.5003881469726562,-1.7860744384765623,10.036493359375,0.06444849837991756,-0.0537958540196006,-0.03382214584400632,1678123076.6513882
1.3421112940413877,0.14683626778423786,0.053691343404352665,1678123077.65249,0.9097966308593749,-2.4875755249023435,10.146626635742187,0.05552690872815212,-0.05925533425426305,0.028229507554839925,1678123076.6615953
1.3421112940413877,0.14683626778423786,0.053691343404352665,1678123077.7527177,2.0470424194335934,-0.239420166015625,12.243947290039062,0.09667274756987634,-0.05273058958356891,-0.004793689962142629,1678123076.6713035
2.693266391812358,0.31709044286981225,0.10565158165991306,1678123077.8700528,4.608838195800781,0.507570751953125,9.253589416503905,0.09081379317170202,-0.030759510590415203,-0.045939528803866855,1678123076.681495
2.693266391812358,0.31709044286981225,0.10565158165991306,1678123077.952115,2.85388837890625,-0.086191259765625,11.710040319824218,0.06844324001503642,-0.0073236929977179045,-0.024101607865217107,1678123076.6913075
2.693266391812358,0.31709044286981225,0.10565158165991306,1678123078.053109,5.8083332275390624,1.886630908203125,10.290278735351562,0.062317969507854176,0.01384843766841204,0.026365294791784455,1678123076.7013352
2.693266391812358,0.31709044286981225,0.10565158165991306,1678123078.152457,2.04943662109375,0.7015010864257812,10.314220751953124,0.06990797861458001,0.030626352535911235,0.027031085064304263,1678123076.7116172
2.693266391812358,0.31709044286981225,0.10565158165991306,1678123078.2523773,1.24498486328125,0.8714894042968749,11.851298217773437,0.046738477130890625,0.0587227020362472,-0.07057376888709982,1678123076.7213264
2.693266391812358,0.31709044286981225,0.10565158165991306,1678123078.3540487,0.5865794067382812,1.7357962036132812,9.672574707031249,0.06937534639656416,0.03994741635118857,-0.019174759848570515,1678123076.731341
2.693266391812358,0.31709044286981225,0.10565158165991306,1678123078.4527037,0.5339069702148437,1.4939818359375,8.588001354980468,0.018375811521546742,0.057391121491207585,0.015579492376963544,1678123076.7437744
2.693266391812358,0.31709044286981225,0.10565158165991306,1678123078.5526087,-1.5394716674804687,2.327164013671875,10.465055456542968,0.041944787168748006,0.03715109720660537,0.014381069886427886,1678123076.751468
2.693266391812358,0.31709044286981225,0.10565158165991306,1678123078.6521957,-0.9504980590820312,0.4644751220703125,10.189722265624999,0.026631610900792378,0.02862898171835181,0.02077265650261806,1678123076.7614048
2.693266391812358,0.31709044286981225,0.10565158165991306,1678123078.752776,0.35673604736328124,1.39821376953125,9.373299499511718,-0.023702133701705222,0.02024002428460221,0.05632585705517589,1678123076.7713828
2.693266391812358,0.31709044286981225,0.10565158165991306,1678123078.8708203,1.22583125,2.971204260253906,9.267954626464844,0.009454221869781294,0.006791060779702058,0.004660531907638666,1678123076.781398
4.023347651178483,0.5308953709900379,0.15797124709933996,1678123078.9523706,2.844311572265625,2.6910826660156246,7.874529260253905,-0.009986854087797143,0.00905474770626941,0.032490565298966705,1678123076.7912576
4.023347651178483,0.5308953709900379,0.15797124709933996,1678123079.0528843,4.010287780761718,1.4532804077148436,9.153032946777342,-0.014514227940931847,0.03994741635118857,0.01251685712337242,1678123076.8013387
4.023347651178483,0.5308953709900379,0.15797124709933996,1678123079.152348,5.6958057495117185,1.3527239379882812,5.125985754394531,-0.011717908796348646,0.06125270507182247,0.03302319751698255,1678123076.8114858
4.023347651178483,0.5308953709900379,0.15797124709933996,1678123079.2525365,3.3877953491210935,-0.6967126831054687,7.809885815429687,-0.047004793239898555,0.08415589044650393,0.052464273474560986,1678123076.821307
4.023347651178483,0.5308953709900379,0.15797124709933996,1678123079.3540204,2.231395947265625,1.5897499023437498,8.470685473632813,-0.02423476591972107,0.09427590258880504,-0.023702133701705222,1678123076.8313403
4.023347651178483,0.5308953709900379,0.15797124709933996,1678123079.4522736,-0.29927520751953124,0.7613561279296874,6.89530078125,-0.004793689962142629,0.11198592383783197,-0.018642127630554665,1678123076.8478239
4.023347651178483,0.5308953709900379,0.15797124709933996,1678123079.5523038,-3.6080619018554687,1.6807295654296874,8.228871105957031,-0.04713795129440252,0.08295746795596827,0.005725796343670361,1678123076.8513536
4.023347651178483,0.5308953709900379,0.15797124709933996,1678123079.6532235,-5.992686755371094,2.195482922363281,8.2743609375,-0.024900556192240877,0.04940163822096987,0.01824265346704278,1678123076.8614466
4.023347651178483,0.5308953709900379,0.15797124709933996,1678123079.7524302,-6.981492041015625,2.0925322509765625,9.943119494628906,-0.05925533425426305,0.009853696033293181,-0.02090581455712202,1678123076.8713071
5.376832076755818,0.7706881449557841,0.19439340010285378,1678123079.873477,-7.398083129882812,1.6543933471679686,10.551246716308594,-0.0541953281831125,-0.04314320965928366,-0.02157160482964183,1678123076.8813791
5.376832076755818,0.7706881449557841,0.19439340010285378,1678123079.9524286,-3.318363500976562,0.5123591552734374,10.845733520507812,-0.05219795736555306,-0.09960222476896351,0.007456851052221866,1678123076.891416
5.376832076755818,0.7706881449557841,0.19439340010285378,1678123080.0524185,-2.272097375488281,-0.30406361083984373,11.346121667480467,-0.07483482663122659,-0.12783173232380343,0.04500742242233912,1678123076.9013193
5.376832076755818,0.7706881449557841,0.19439340010285378,1678123080.1525173,2.817975354003906,-1.7477672119140624,12.167332836914062,-0.06418218227090965,-0.13062805146838663,-0.051265850984025335,1678123076.9114125
5.376832076755818,0.7706881449557841,0.19439340010285378,1678123080.2525935,6.227318518066406,-2.272097375488281,10.66856259765625,-0.04460794825882724,-0.10133327947751501,0.01384843766841204,1678123076.9213214
5.376832076755818,0.7706881449557841,0.19439340010285378,1678123080.3538857,8.99501563720703,-1.5442600708007812,9.342174877929686,-0.04833637378493817,-0.07310377192267509,0.0049268480166465905,1678123076.9313743
5.376832076755818,0.7706881449557841,0.19439340010285378,1678123080.452333,10.491391674804687,-1.3096283081054687,7.7596075805664055,-0.017576863194522972,0.008522115488253561,0.013182647395892227,1678123076.9438753
5.376832076755818,0.7706881449557841,0.19439340010285378,1678123080.5525525,7.963114721679687,-4.709394665527343,10.644620581054687,-0.01731054708551505,0.0604537567447987,0.019041601794066554,1678123076.951394
5.376832076755818,0.7706881449557841,0.19439340010285378,1678123080.6526403,6.924031201171875,-2.4971523315429685,9.950302099609374,-0.023835291756209184,0.09747169589690012,-0.03781688747912518,1678123076.9614217
5.376832076755818,0.7706881449557841,0.19439340010285378,1678123080.7523496,2.6671406494140624,-2.96881005859375,7.323862878417969,0.03368898778950236,0.12703278399677967,0.0055926382891664,1678123076.9713044
6.7543024948681705,1.0186243746429682,0.24378387816250324,1678123080.8709555,-0.9050082275390624,-3.6104561035156246,11.080365283203124,0.034088461953014244,0.13728595419358475,0.01731054708551505,1678123076.981367
6.7543024948681705,1.0186243746429682,0.24378387816250324,1678123080.952304,-2.4396914916992185,-3.3446997192382812,10.20887587890625,0.07430219441321075,0.12543488734273212,-0.02716424311880823,1678123076.9914498
6.7543024948681705,1.0186243746429682,0.24378387816250324,1678123081.0526278,-2.96881005859375,-1.0558429321289062,9.09796630859375,0.060187440635790776,0.08881642235414258,-0.04141215495073215,1678123077.0013213
6.7543024948681705,1.0186243746429682,0.24378387816250324,1678123081.152849,-4.278438366699218,-0.6296750366210937,7.268796240234375,0.07510114274023451,0.06671218530648491,-0.024634240083232953,1678123077.0114393
6.7543024948681705,1.0186243746429682,0.24378387816250324,1678123081.2523413,-4.225765930175781,1.20667763671875,8.901641772460938,0.060586914799302664,0.029960562263391426,-0.028495823663847848,1678123077.0213158
6.7543024948681705,1.0186243746429682,0.24378387816250324,1678123081.353928,-3.9600095458984375,1.8339584716796873,7.7787611938476555,0.058589543981743236,0.003062635253591124,0.02250371121116956,1678123077.0313563
6.7543024948681705,1.0186243746429682,0.24378387816250324,1678123081.4523344,-2.70065947265625,0.277727392578125,10.079588989257813,0.024900556192240877,-0.013315805450396189,-0.0660463950339651,1678123077.043338
6.7543024948681705,1.0186243746429682,0.24378387816250324,1678123081.552493,-0.9457096557617187,1.8818425048828125,9.686939916992188,0.033156355571486516,-0.056192699000671927,-0.02343581759269729,1678123077.0513434
6.7543024948681705,1.0186243746429682,0.24378387816250324,1678123081.652308,-2.0781670410156248,3.0597897216796874,8.741230261230468,-0.0011984224905356572,-0.07230482359565131,-0.013315805450396189,1678123077.0614586
6.7543024948681705,1.0186243746429682,0.24378387816250324,1678123081.7530098,1.1061211669921875,2.3487118286132813,9.516951599121093,0.02716424311880823,-0.07057376888709982,-0.004527373853134705,1678123077.071305
8.133478379109874,1.2651335643604398,0.27913512475788593,1678123081.8706536,2.109291662597656,-1.7980454467773437,9.65342109375,-0.0002663161090079238,-0.052863747638072875,-0.002530003035575276,1678123077.0813713
8.133478379109874,1.2651335643604398,0.27913512475788593,1678123081.9524162,5.058948107910156,-0.6392518432617187,10.031704956054687,-0.022903185374681445,-0.04767058351241837,0.017710021249026934,1678123077.0914278
8.133478379109874,1.2651335643604398,0.27913512475788593,1678123082.0522168,3.9432501342773434,-1.7573440185546874,8.743624462890624,0.01944107595757844,-0.02676476895529634,-0.009587379924285258,1678123077.1013312
8.133478379109874,1.2651335643604398,0.27913512475788593,1678123082.1524599,4.6998178588867185,-1.5586252807617187,8.099584216308592,0.015712650431467506,-0.005459480234662438,0.004527373853134705,1678123077.1114087
8.133478379109874,1.2651335643604398,0.27913512475788593,1678123082.252341,3.9145197143554684,-2.0757728393554684,9.890447058105469,0.02090581455712202,0.035952674716069714,0.004793689962142629,1678123077.121335
8.133478379109874,1.2651335643604398,0.27913512475788593,1678123082.3543732,2.147598889160156,-0.16998831787109375,7.5345526245117185,0.045140580476843085,0.039281626078668766,0.01744370514001901,1678123077.1313517
8.133478379109874,1.2651335643604398,0.27913512475788593,1678123082.4522023,-0.29927520751953124,-1.5873557006835937,10.984597216796875,0.04167847105974008,0.041012680787220264,0.011851066850852611,1678123077.1426895
8.133478379109874,1.2651335643604398,0.27913512475788593,1678123082.5525033,-1.1420341918945311,2.1452046874999997,10.168174450683592,0.04620584491287478,0.035153726389045944,-0.035952674716069714,1678123077.1513793
8.133478379109874,1.2651335643604398,0.27913512475788593,1678123082.6524596,-1.005564697265625,0.21068974609375,8.623914379882812,0.08202536157444053,0.02157160482964183,-0.004793689962142629,1678123077.1614714
8.133478379109874,1.2651335643604398,0.27913512475788593,1678123082.7523565,-1.9225439331054686,0.8116343627929687,10.896011755371093,0.026498452846288417,0.015046860158947694,-0.008522115488253561,1678123077.171328
9.48707950732205,1.5234993873164058,0.34130750969052315,1678123082.8765917,-3.0621839233398433,0.9528922607421875,10.539275708007812,0.060586914799302664,0.0027963191445832,0.017976337358034857,1678123077.1813781
9.48707950732205,1.5234993873164058,0.34130750969052315,1678123082.9526067,-1.484405029296875,-0.086191259765625,10.524910498046875,0.03222424918995878,-0.02876213977285577,0.007856325215733753,1678123077.1914165
9.48707950732205,1.5234993873164058,0.34130750969052315,1678123083.0524778,-1.465251416015625,1.7190367919921874,11.003750830078124,0.01944107595757844,-0.042743735495771776,0.005858954398174323,1678123077.2013416
9.48707950732205,1.5234993873164058,0.34130750969052315,1678123083.1523407,0.5746083984375,0.7398083129882812,9.449913952636718,0.02530003035575276,-0.05765743760021551,0.043675841877299504,1678123077.2114275
9.48707950732205,1.5234993873164058,0.34130750969052315,1678123083.2524831,0.6871358764648438,0.26815058593749996,10.89840595703125,0.01890844373956259,-0.060586914799302664,0.08535431293703959,1678123077.2213507
9.48707950732205,1.5234993873164058,0.34130750969052315,1678123083.3542266,3.172317199707031,-2.185906115722656,11.425130322265625,0.011984224905356573,-0.0632500758893819,-0.04394215798630743,1678123077.231371
9.48707950732205,1.5234993873164058,0.34130750969052315,1678123083.452403,5.384559533691406,-2.549824768066406,11.473014355468749,0.053263221801584756,-0.02343581759269729,0.022903185374681445,1678123077.2427926
9.48707950732205,1.5234993873164058,0.34130750969052315,1678123083.552472,5.9400143188476555,-2.655169641113281,10.206481677246094,0.015313176267955617,0.010253170196805066,0.03808320358813311,1678123077.2514305
9.48707950732205,1.5234993873164058,0.34130750969052315,1678123083.6528032,9.035717065429687,-0.7541735229492187,10.031704956054687,0.07736482966680187,0.047404267403410444,0.02356897564720126,1678123077.2614832
9.48707950732205,1.5234993873164058,0.34130750969052315,1678123083.752331,6.1459156616210935,-1.3623007446289062,10.74517705078125,0.07683219744878603,0.09680590562438031,-0.018375811521546742,1678123077.2713706
10.829574408999179,1.7836052933707833,0.39024294074624777,1678123083.8702116,5.68862314453125,-0.086191259765625,9.351751684570312,0.06351639199838983,0.1241033067976925,-0.015180018213451656,1678123077.2814906
10.829574408999179,1.7836052933707833,0.39024294074624777,1678123083.9524982,3.871424084472656,1.6472107421875,10.041281762695311,0.06591323697946114,0.15459650127909977,-0.026232136737280493,1678123077.291419
10.829574408999179,1.7836052933707833,0.39024294074624777,1678123084.0524244,2.7269956909179687,2.3319524169921872,7.568071447753906,0.05219795736555306,0.15978966540475428,0.029960562263391426,1678123077.3013422
10.829574408999179,1.7836052933707833,0.39024294074624777,1678123084.1523886,-1.9871873779296874,2.0374656127929685,8.63109698486328,0.04713795129440252,0.1639175650943771,-0.021438446775137867,1678123077.3114412
10.829574408999179,1.7836052933707833,0.39024294074624777,1678123084.252361,-2.114080065917969,5.054159704589844,6.347028601074219,0.029694246154383503,0.14527543746382243,-0.05446164429212042,1678123077.3213596
10.829574408999179,1.7836052933707833,0.39024294074624777,1678123084.3541238,-5.865794067382812,3.6559459350585937,9.689334118652344,-0.016378440703987314,0.12277172625265287,0.011984224905356573,1678123077.3313904
10.829574408999179,1.7836052933707833,0.39024294074624777,1678123084.4522474,-5.03740029296875,5.286397265624999,9.425971936035156,-0.04034689051470046,0.0800279907568811,0.052863747638072875,1678123077.3426592
10.829574408999179,1.7836052933707833,0.39024294074624777,1678123084.5523062,-5.9783215454101555,1.8435352783203125,9.5384994140625,-0.052464273474560986,0.02356897564720126,0.09081379317170202,1678123077.3515294
10.829574408999179,1.7836052933707833,0.39024294074624777,1678123084.652603,-7.208941198730468,0.5770026000976562,9.253589416503905,-0.08149272935642468,-0.025433188410256723,0.020639498448114094,1678123077.361633
10.829574408999179,1.7836052933707833,0.39024294074624777,1678123084.752538,-1.0510545288085937,0.6560112548828124,9.540893615722656,-0.06444849837991756,-0.05845638592723928,0.04221110327775593,1678123077.3713863
12.16205468744738,2.011182845570147,0.44214483723044395,1678123084.8708675,-2.039859814453125,-0.9983820922851562,8.748412866210938,-0.07137271721412358,-0.06378270810739775,0.055793224837160045,1678123077.3814878
12.16205468744738,2.011182845570147,0.44214483723044395,1678123084.9522638,1.3934253662109375,-0.6464344482421874,11.640608471679688,-0.06564692087045322,-0.07523430079473847,0.02170476288414579,1678123077.39142
12.16205468744738,2.011182845570147,0.44214483723044395,1678123085.0524642,3.3399113159179685,-1.678335363769531,9.504980590820312,-0.039414784133172724,-0.05912217619975908,0.029960562263391426,1678123077.4013617
12.16205468744738,2.011182845570147,0.44214483723044395,1678123085.1524084,5.9376201171875,-2.4779987182617185,9.210493786621093,-0.042876893550275734,-0.023702133701705222,0.07110640110511567,1678123077.4114933
12.16205468744738,2.011182845570147,0.44214483723044395,1678123085.2522435,5.2265422241210935,-1.8100164550781248,9.258377819824219,-0.01597896654047543,-0.003994741635118857,-0.013582121559404116,1678123077.4213996
12.16205468744738,2.011182845570147,0.44214483723044395,1678123085.3540285,5.03740029296875,-1.22583125,9.325415466308593,0.019307917903074477,0.03342267168049444,-0.0447411063133312,1678123077.431392
12.16205468744738,2.011182845570147,0.44214483723044395,1678123085.4524467,3.758896606445312,-0.6368576416015624,9.246406811523437,0.0055926382891664,0.052863747638072875,-0.02250371121116956,1678123077.4431062
12.16205468744738,2.011182845570147,0.44214483723044395,1678123085.5525725,0.7206546997070312,-0.3399766357421875,8.798691101074219,0.030626352535911235,0.08641957737307128,-0.018375811521546742,1678123077.4514358
12.16205468744738,2.011182845570147,0.44214483723044395,1678123085.6522079,-0.507570751953125,-1.0223241088867188,10.876858142089842,0.01744370514001901,0.07616640717626622,-0.0167779148674992,1678123077.461557
12.16205468744738,2.011182845570147,0.44214483723044395,1678123085.7522337,-1.7884686401367187,1.3670891479492187,9.95987890625,0.0019973708175594286,0.06418218227090965,-0.07416903635870678,1678123077.4713607
13.486282289260998,2.213571352418512,0.4932979168370366,1678123085.8704329,-2.01112939453125,1.9752163696289062,9.095572106933593,0.014913702104443732,0.03968110024218065,-0.038482677751644996,1678123077.4814644
13.486282289260998,2.213571352418512,0.4932979168370366,1678123085.9522724,-2.863465185546875,1.9009961181640624,9.689334118652344,-0.019840550121090324,0.024501082028728992,0.0018642127630554665,1678123077.491444
13.486282289260998,2.213571352418512,0.4932979168370366,1678123086.0525177,-1.3670891479492187,1.3814543579101561,10.103531005859374,-0.015845808485971467,0.012916331286884304,-0.012916331286884304,1678123077.5013566
13.486282289260998,2.213571352418512,0.4932979168370366,1678123086.1522686,-1.9847931762695312,0.6081272216796875,8.99501563720703,-0.04633900296737874,-0.013315805450396189,-0.020639498448114094,1678123077.5114985
13.486282289260998,2.213571352418512,0.4932979168370366,1678123086.2524683,-1.8842367065429686,0.7326257080078125,10.68053360595703,-0.06617955308846907,-0.018775285685058627,-0.01038632825130903,1678123077.5213962
13.486282289260998,2.213571352418512,0.4932979168370366,1678123086.3543832,0.3758896606445312,1.0606313354492187,9.880870251464843,-0.05832322787273531,-0.0318247750264469,0.028495823663847848,1678123077.5314064
13.486282289260998,2.213571352418512,0.4932979168370366,1678123086.4523318,2.31758720703125,-1.9321207397460936,9.504980590820312,-0.05992112452678285,-0.01691107292200316,0.08029430686588902,1678123077.5441546
13.486282289260998,2.213571352418512,0.4932979168370366,1678123086.5524256,1.946485949707031,-2.607285607910156,10.280701928710936,-0.05392901207410457,-0.024767398137736915,0.008788431597261486,1678123077.5514464
13.486282289260998,2.213571352418512,0.4932979168370366,1678123086.652533,4.101267443847656,-3.6272155151367187,9.770736975097655,-0.00692421883420602,-0.0002663161090079238,0.027963191445832,1678123077.561508
13.486282289260998,2.213571352418512,0.4932979168370366,1678123086.7531767,4.989516259765625,-2.9281086303710935,9.179369165039063,-0.013582121559404116,0.021172130666129944,0.0035952674716069714,1678123077.571376
14.854565238114446,2.447631574701518,0.5199217004701495,1678123086.8717954,4.915296008300781,-1.2425906616210938,9.885658654785155,0.031558458917438977,0.048203215730434214,0.0006657902725198095,1678123077.5814226
14.854565238114446,2.447631574701518,0.5199217004701495,1678123086.9524083,3.4715924072265625,-1.8291700683593748,8.80347950439453,0.03648530693408556,0.06804376585152452,0.017710021249026934,1678123077.5914717
14.854565238114446,2.447631574701518,0.5199217004701495,1678123087.0530121,2.492363928222656,-0.21308394775390624,8.927977990722656,-0.0002663161090079238,0.0954743250793407,0.0268979270098003,1678123077.6013982
14.854565238114446,2.447631574701518,0.5199217004701495,1678123087.152367,1.7788918334960937,0.6105214233398437,8.09479581298828,0.03036003642690331,0.10719223387568932,0.01344896350490015,1678123077.6115055
14.854565238114446,2.447631574701518,0.5199217004701495,1678123087.2523177,1.0414777221679687,-0.8571241943359375,7.510610607910156,0.01691107292200316,0.1023985439135467,0.036751623043093484,1678123077.6214247
14.854565238114446,2.447631574701518,0.5199217004701495,1678123087.3537745,-1.7501614135742187,-0.15322890625,10.500968481445312,0.03142530086293501,0.09667274756987634,0.024900556192240877,1678123077.6314027
14.854565238114446,2.447631574701518,0.5199217004701495,1678123087.4524238,-2.0470424194335934,1.6543933471679686,6.514622717285156,0.014247911831923924,0.07576693301275432,0.015845808485971467,1678123077.6425378
14.854565238114446,2.447631574701518,0.5199217004701495,1678123087.552764,-4.197035510253906,1.0773907470703123,10.503362683105468,-0.005193164125654515,0.059787966472278894,0.014114753777419962,1678123077.651431
14.854565238114446,2.447631574701518,0.5199217004701495,1678123087.6521893,-2.185906115722656,2.233790148925781,8.185775476074218,-0.018375811521546742,0.02609897868277653,0.024900556192240877,1678123077.6615162
14.854565238114446,2.447631574701518,0.5199217004701495,1678123087.7523084,-3.19865341796875,-1.4006079711914061,9.41639512939453,-0.008522115488253561,-0.0002663161090079238,0.10080064725949917,1678123077.6713636
16.208143621624913,2.6421566791832447,0.5982480933889747,1678123087.8724341,-2.157175695800781,-0.36391865234375,10.32379755859375,-0.02170476288414579,-0.021305288720633905,-0.021172130666129944,1678123077.68145
16.208143621624913,2.6421566791832447,0.5982480933889747,1678123087.952537,0.469263525390625,-0.17477672119140625,10.024522351074218,0.02716424311880823,-0.03542004249805387,-0.030093720317895388,1678123077.6914642
16.208143621624913,2.6421566791832447,0.5982480933889747,1678123088.052469,2.952050646972656,-0.63206923828125,8.070853796386718,-0.004394215798630743,-0.0268979270098003,0.0002663161090079238,1678123077.7014143
16.208143621624913,2.6421566791832447,0.5982480933889747,1678123088.1520395,2.3918074584960936,-0.3327940307617187,10.867281335449219,0.013981595722916,-0.017976337358034857,0.007190534943213943,1678123077.7114773
16.208143621624913,2.6421566791832447,0.5982480933889747,1678123088.2523112,3.7014357666015623,-1.3359645263671873,7.963114721679687,0.01478054404993977,0.0019973708175594286,0.017710021249026934,1678123077.721429
16.208143621624913,2.6421566791832447,0.5982480933889747,1678123088.3542082,3.411737365722656,-1.4939818359375,9.303867651367186,-0.0019973708175594286,0.018642127630554665,0.02090581455712202,1678123077.731432
16.208143621624913,2.6421566791832447,0.5982480933889747,1678123088.4526658,3.938461730957031,0.4429273071289062,9.10993731689453,0.03981425829668461,0.03808320358813311,-0.0636495500528938,1678123077.742369
16.208143621624913,2.6421566791832447,0.5982480933889747,1678123088.5523627,2.6096798095703124,-1.68551796875,9.325415466308593,0.04953479627547383,0.06032059869029474,-0.012916331286884304,1678123077.7514842
16.208143621624913,2.6421566791832447,0.5982480933889747,1678123088.6523185,1.4221557861328125,-1.7022773803710936,10.613495959472656,0.04580637074936289,0.06498113059793341,-0.037550571370117254,1678123077.7616742
16.208143621624913,2.6421566791832447,0.5982480933889747,1678123088.7528417,2.032677209472656,-0.8714894042968749,7.908048083496094,0.059787966472278894,0.07430219441321075,-0.011984224905356573,1678123077.771434
17.545511737000197,2.85156780295074,0.6738159824162722,1678123088.8686986,-0.16280571289062498,-2.094926452636719,9.679757312011718,0.042743735495771776,0.06724481752450076,0.029694246154383503,1678123077.7814717
17.545511737000197,2.85156780295074,0.6738159824162722,1678123088.95224,0.18435352783203124,1.407790576171875,8.453926062011718,0.06111954701731851,0.05432848623761646,-0.042743735495771776,1678123077.7914276
17.545511737000197,2.85156780295074,0.6738159824162722,1678123089.0522668,-1.3934253662109375,-0.28490999755859375,8.698134631347656,0.09640643146086843,0.06657902725198095,-0.03542004249805387,1678123077.8014076
17.545511737000197,2.85156780295074,0.6738159824162722,1678123089.1526668,-1.419761584472656,-0.07422025146484375,9.258377819824219,0.05339637985608872,0.045939528803866855,0.005992112452678286,1678123077.8115058
17.545511737000197,2.85156780295074,0.6738159824162722,1678123089.2526064,-0.6751648681640625,0.3806780639648437,9.34696328125,0.05459480234662439,0.03968110024218065,0.0486026898939461,1678123077.8214304
17.545511737000197,2.85156780295074,0.6738159824162722,1678123089.3540876,-0.40222587890625,0.7996633544921875,8.904035974121093,0.023702133701705222,0.014647385995435809,-0.0021305288720633903,1678123077.8314524
17.545511737000197,2.85156780295074,0.6738159824162722,1678123089.4524405,-2.157175695800781,1.0654197387695312,11.513715783691406,0.03528688444354991,0.019307917903074477,-0.002530003035575276,1678123077.8424218
17.545511737000197,2.85156780295074,0.6738159824162722,1678123089.5525572,-2.133233679199219,1.3838485595703125,9.437942944335937,0.0363521488795816,-0.006125270507182248,0.04181162911424404,1678123077.8514364
17.545511737000197,2.85156780295074,0.6738159824162722,1678123089.6523829,-0.5099649536132812,-0.44532150878906246,9.351751684570312,0.021305288720633905,-0.017576863194522972,0.09680590562438031,1678123077.8616366
17.545511737000197,2.85156780295074,0.6738159824162722,1678123089.7523522,-0.8044517578125,-0.4740519287109375,10.330980163574218,0.015446334322459582,-0.02876213977285577,-0.008921589651765448,1678123077.871413
18.91223586309934,3.0610953918658197,0.7126702927052975,1678123089.8692985,1.2880804931640624,-1.7884686401367187,10.182539660644531,0.04460794825882724,-0.03195793308095086,0.0720385074866434,1678123077.8814597
18.91223586309934,3.0610953918658197,0.7126702927052975,1678123089.9530523,2.2744915771484373,-1.7238251953125,10.347739575195313,0.0346210941710301,-0.011451592687340723,0.06391586616190172,1678123077.8914049
18.91223586309934,3.0610953918658197,0.7126702927052975,1678123090.0531433,5.214571215820312,-2.4444798950195312,8.748412866210938,0.07523430079473847,-0.005725796343670361,0.03781688747912518,1678123077.9014323
18.91223586309934,3.0610953918658197,0.7126702927052975,1678123090.15227,3.5434184570312497,-4.005499377441406,11.030087048339842,0.07137271721412358,0.015046860158947694,0.04873584794845006,1678123077.9115326
18.91223586309934,3.0610953918658197,0.7126702927052975,1678123090.2522352,4.256890551757812,-1.0295067138671874,8.588001354980468,0.07616640717626622,0.04567321269485893,0.055793224837160045,1678123077.9215152
18.91223586309934,3.0610953918658197,0.7126702927052975,1678123090.3538527,4.197035510253906,-0.8810662109374999,6.900089184570312,0.12436962290670042,0.06990797861458001,0.04460794825882724,1678123077.9314852
18.91223586309934,3.0610953918658197,0.7126702927052975,1678123090.4524262,1.7525556152343749,-1.4006079711914061,8.003816149902343,0.1111869755108082,0.08855010624513467,0.04221110327775593,1678123077.9423926
18.91223586309934,3.0610953918658197,0.7126702927052975,1678123090.552171,-0.8212111694335937,-0.7350199096679687,8.777143286132812,0.1495364952079492,0.08455536461001581,0.037417413315613296,1678123077.9514623
18.91223586309934,3.0610953918658197,0.7126702927052975,1678123090.652223,-3.1771056030273437,1.697488977050781,8.125920434570313,0.1338238447764817,0.08335694211948017,0.017576863194522972,1678123077.9619331
18.91223586309934,3.0610953918658197,0.7126702927052975,1678123090.7531164,-6.138733056640625,0.967257470703125,9.13627353515625,0.11385013660088743,0.054727960401128345,0.012383699068868458,1678123077.9714015
20.2923324094736,3.2407686547376215,0.7556466041132808,1678123090.8694806,-5.315127685546875,2.868253588867187,9.72285294189453,0.09693906367888427,0.009187905760773371,0.009321063815277333,1678123077.9815423
20.2923324094736,3.2407686547376215,0.7556466041132808,1678123090.9533386,-8.0828248046875,2.607285607910156,9.315838659667968,0.10905644663874481,-0.04420847409531535,0.05006742849348968,1678123077.9914675
20.2923324094736,3.2407686547376215,0.7556466041132808,1678123091.0521684,-6.040570788574218,1.9752163696289062,10.534487304687499,0.07230482359565131,-0.08868326429963863,-0.012383699068868458,1678123078.0014386
20.2923324094736,3.2407686547376215,0.7556466041132808,1678123091.1524215,-3.0621839233398433,1.1468225952148436,9.507374792480467,0.08988168679017429,-0.13156015784991437,0.017976337358034857,1678123078.0117598
20.2923324094736,3.2407686547376215,0.7556466041132808,1678123091.252408,-0.1771709228515625,-0.6655880615234374,8.520963708496094,0.036751623043093484,-0.14314490859175905,-0.005060006071150552,1678123078.0214586
20.2923324094736,3.2407686547376215,0.7556466041132808,1678123091.3540382,2.7844565307617186,0.016759411621093748,12.65335577392578,0.07230482359565131,-0.13302489644945795,0.00625842856168621,1678123078.0314708
20.2923324094736,3.2407686547376215,0.7556466041132808,1678123091.4521885,5.700594152832031,-2.3343466186523436,11.056423266601563,0.09627327340636446,-0.10998855302027254,0.01890844373956259,1678123078.0423305
20.2923324094736,3.2407686547376215,0.7556466041132808,1678123091.5528078,7.426813549804687,-1.6304513305664061,10.761936462402343,0.08801747402711882,-0.06178533728983833,0.0023968449810713144,1678123078.051522
20.2923324094736,3.2407686547376215,0.7556466041132808,1678123091.652453,9.567229833984374,-1.5610194824218748,11.391611499023437,0.09920275060545163,-0.024634240083232953,-0.042876893550275734,1678123078.0618324
20.2923324094736,3.2407686547376215,0.7556466041132808,1678123091.752178,7.9655089233398435,-1.5346832641601562,11.386823095703125,0.12783173232380343,0.022903185374681445,0.016378440703987314,1678123078.0714328
21.663196173438337,3.4181350166909397,0.7987817684188485,1678123091.870815,7.256825231933593,-0.19153613281249998,11.008539233398437,0.1348891092125134,0.08708536764559109,-0.019174759848570515,1678123078.0814946
21.663196173438337,3.4181350166909397,0.7987817684188485,1678123091.952352,5.130774157714844,0.21308394775390624,8.508992700195313,0.1527322885160443,0.12703278399677967,-0.04247741938676385,1678123078.0914028
21.663196173438337,3.4181350166909397,0.7987817684188485,1678123092.0524724,2.980781066894531,-1.4628572143554686,10.874463940429687,0.14114753777419964,0.14980281131695714,-0.03382214584400632,1678123078.1014466
21.663196173438337,3.4181350166909397,0.7987817684188485,1678123092.1530082,0.02154781494140625,4.127603662109375,9.244012609863281,0.11864382656303006,0.15965650735025033,-0.05725796343670362,1678123078.1116912
21.663196173438337,3.4181350166909397,0.7987817684188485,1678123092.2520976,-3.0454245117187497,4.479551306152343,7.742848168945312,0.12050803932608552,0.1486043888264215,-0.009587379924285258,1678123078.1214817
21.663196173438337,3.4181350166909397,0.7987817684188485,1678123092.3536248,-6.37815322265625,4.513070129394531,9.121908325195312,0.057790595654719466,0.10945592080225669,0.03528688444354991,1678123078.1314886
21.663196173438337,3.4181350166909397,0.7987817684188485,1678123092.452442,-4.979939453125,3.6152445068359373,7.438784558105469,0.06404902421640568,0.07763114577580979,0.037550571370117254,1678123078.1424103
21.663196173438337,3.4181350166909397,0.7987817684188485,1678123092.5524402,-4.299986181640625,3.0214824951171875,7.1586629638671875,0.010253170196805066,0.029694246154383503,0.052464273474560986,1678123078.1514702
21.663196173438337,3.4181350166909397,0.7987817684188485,1678123092.6522257,-5.372588525390625,4.438849877929687,6.866570361328125,-0.007723167161229791,-0.02676476895529634,0.01890844373956259,1678123078.1617608
21.663196173438337,3.4181350166909397,0.7987817684188485,1678123092.7522383,-2.3487118286132813,5.334281298828125,6.586448767089843,-0.02356897564720126,-0.05459480234662439,0.052863747638072875,1678123078.1714563
23.058004284801427,3.59214099124074,0.8219252089038491,1678123092.8735256,-2.398990063476562,0.6584054565429687,8.291120349121094,-0.037417413315613296,-0.060986388962814546,0.15606123987864337,1678123078.181511
23.058004284801427,3.59214099124074,0.8219252089038491,1678123092.952817,0.6536170532226562,-0.1292868896484375,9.267954626464844,-0.05765743760021551,-0.08402273239199996,0.041944787168748006,1678123078.1914256
23.058004284801427,3.59214099124074,0.8219252089038491,1678123093.052118,1.3335703247070312,0.6584054565429687,8.894459167480468,-0.019840550121090324,-0.09201221566223768,0.0268979270098003,1678123078.201482
23.058004284801427,3.59214099124074,0.8219252089038491,1678123093.1521325,3.418919970703125,-0.40222587890625,9.852139831542969,-0.032357407244462746,-0.07563377495825035,0.023702133701705222,1678123078.211699
23.058004284801427,3.59214099124074,0.8219252089038491,1678123093.253129,3.545812658691406,1.8148048583984373,9.95987890625,-0.011451592687340723,-0.0587227020362472,0.003994741635118857,1678123078.2214975
23.058004284801427,3.59214099124074,0.8219252089038491,1678123093.353857,5.6311623046875,0.28969840087890625,10.105925207519531,-0.008522115488253561,-0.033955303898510286,0.007456851052221866,1678123078.2315233
23.058004284801427,3.59214099124074,0.8219252089038491,1678123093.4522197,3.6080619018554687,1.9488801513671874,9.7683427734375,-0.019840550121090324,0.0015978966540475428,0.005992112452678286,1678123078.242826
23.058004284801427,3.59214099124074,0.8219252089038491,1678123093.5520844,3.1459809814453124,1.7381904052734374,9.811438403320311,0.015313176267955617,0.024900556192240877,-0.05299690569257683,1678123078.2515888
23.058004284801427,3.59214099124074,0.8219252089038491,1678123093.6530223,0.7254431030273437,3.0166940917968748,10.481814868164061,-0.015446334322459582,0.03781688747912518,-0.02157160482964183,1678123078.2618976
23.058004284801427,3.59214099124074,0.8219252089038491,1678123093.7522767,0.1867477294921875,3.9169139160156248,9.830592016601562,-0.02330265953819333,0.04127899689622819,-0.005326322180158476,1678123078.2714694
24.424275017459877,3.7789951246231794,0.8695855727419257,1678123093.8678155,-1.599326708984375,4.498704919433593,8.755595471191405,-0.053662695965096645,0.017976337358034857,0.013981595722916,1678123078.2815232
24.424275017459877,3.7789951246231794,0.8695855727419257,1678123093.952227,-3.928884924316406,1.3239935180664062,11.573570825195311,-0.0901480028991822,0.009454221869781294,0.015712650431467506,1678123078.2913542
24.424275017459877,3.7789951246231794,0.8695855727419257,1678123094.0524473,-3.4428619873046875,3.706224169921875,11.037269653320312,-0.08069378102940092,-0.020639498448114094,-0.04580637074936289,1678123078.3014753
24.424275017459877,3.7789951246231794,0.8695855727419257,1678123094.1524823,-0.5817910034179687,2.3391350219726563,9.0788126953125,-0.09001484484467824,-0.035952674716069714,0.021438446775137867,1678123078.3116934
24.424275017459877,3.7789951246231794,0.8695855727419257,1678123094.2525785,-0.4860229370117187,0.22505495605468748,8.8872765625,-0.12769857426929948,-0.05113269292952137,0.01890844373956259,1678123078.3214905
24.424275017459877,3.7789951246231794,0.8695855727419257,1678123094.3539283,2.942473840332031,-1.1635820068359375,10.158597644042969,-0.10572749527614575,-0.04807005767593025,0.010652644360316953,1678123078.3314853
24.424275017459877,3.7789951246231794,0.8695855727419257,1678123094.452648,3.4931402221679684,-2.250549560546875,10.034099157714843,-0.11451592687340724,-0.03195793308095086,-0.02024002428460221,1678123078.3430624
24.424275017459877,3.7789951246231794,0.8695855727419257,1678123094.553113,4.218583325195312,-2.1906945190429687,10.570400329589843,-0.08069378102940092,-0.011451592687340723,-0.005193164125654515,1678123078.3515656
24.424275017459877,3.7789951246231794,0.8695855727419257,1678123094.6523216,5.7891796142578125,-3.0621839233398433,9.964667309570311,-0.07496798468573054,0.015712650431467506,0.03275688140797463,1678123078.3615615
24.424275017459877,3.7789951246231794,0.8695855727419257,1678123094.7528048,4.106055847167968,-2.8371289672851563,9.011775048828124,-0.09387642842529313,0.03901530996966084,0.06990797861458001,1678123078.3714428
25.81454501254484,3.975140572991222,0.8883793270215392,1678123094.8700733,3.0837317382812497,-1.5777788940429687,10.137049829101562,-0.0447411063133312,0.07403587830420282,0.017576863194522972,1678123078.3815298
25.81454501254484,3.975140572991222,0.8883793270215392,1678123094.9527056,3.4428619873046875,-1.7741034301757812,8.611943371582031,-0.017710021249026934,0.08961537068116636,0.022237395102161637,1678123078.39147
25.81454501254484,3.975140572991222,0.8883793270215392,1678123095.052494,1.8698714965820311,0.18435352783203124,9.744400756835937,-0.029294771990871618,0.10546117916713782,-0.017177389031011087,1678123078.4015558
25.81454501254484,3.975140572991222,0.8883793270215392,1678123095.1523404,-0.3854664672851562,2.0470424194335934,8.262389929199218,-0.015446334322459582,0.0961401153518605,-0.002530003035575276,1678123078.4115572
25.81454501254484,3.975140572991222,0.8883793270215392,1678123095.2530098,-2.4660277099609376,-0.5363011718749999,10.726023437499999,-0.0541953281831125,0.08096009713840883,0.030493194481407273,1678123078.4215097
25.81454501254484,3.975140572991222,0.8883793270215392,1678123095.3539834,-2.8850130004882812,1.70467158203125,9.8449572265625,-0.049667954329977795,0.06684534336098888,0.00346210941710301,1678123078.4315057
25.81454501254484,3.975140572991222,0.8883793270215392,1678123095.452475,-3.1268273681640624,1.3670891479492187,8.480262280273436,-0.03422162000751821,0.05299690569257683,-0.00625842856168621,1678123078.4424987
25.81454501254484,3.975140572991222,0.8883793270215392,1678123095.5522666,-6.110002636718749,1.8100164550781248,9.208099584960937,-0.05512743456464023,0.01265001517787638,-0.007590009106725828,1678123078.4515674
25.81454501254484,3.975140572991222,0.8883793270215392,1678123095.6525402,-4.553771557617187,1.120486376953125,9.507374792480467,-0.05179848320204118,-0.015579492376963544,-0.021305288720633905,1678123078.4615748
25.81454501254484,3.975140572991222,0.8883793270215392,1678123095.7523823,-3.794809631347656,0.8212111694335937,9.351751684570312,-0.09108010928070993,-0.04833637378493817,0.004127899689622819,1678123078.4714837
27.227041631471366,4.176835207268596,0.9287099279463291,1678123095.869484,-2.47081611328125,0.6368576416015624,9.950302099609374,-0.0793622004843613,-0.08641957737307128,0.022636869265673522,1678123078.4815583
27.227041631471366,4.176835207268596,0.9287099279463291,1678123095.9521914,0.6464344482421874,0.011971008300781249,8.341398583984375,-0.07190534943213943,-0.10386328251309028,-0.01744370514001901,1678123078.491563
27.227041631471366,4.176835207268596,0.9287099279463291,1678123096.0523143,1.3623007446289062,-2.0661960327148434,8.319850769042969,-0.06990797861458001,-0.09680590562438031,0.0066579027251980945,1678123078.501499
27.227041631471366,4.176835207268596,0.9287099279463291,1678123096.1524124,3.73495458984375,-2.272097375488281,9.560047229003906,-0.0632500758893819,-0.07150587526862755,-0.05179848320204118,1678123078.5115554
27.227041631471366,4.176835207268596,0.9287099279463291,1678123096.2522507,4.534617944335937,-3.5338416503906247,8.137891442871092,-0.029960562263391426,-0.05392901207410457,0.003994741635118857,1678123078.521542
27.227041631471366,4.176835207268596,0.9287099279463291,1678123096.3541102,6.289567761230469,-1.407790576171875,8.001421948242188,-0.04221110327775593,-0.02250371121116956,-0.03701793915210141,1678123078.5315068
27.227041631471366,4.176835207268596,0.9287099279463291,1678123096.4522467,5.753266589355468,-2.104503259277344,8.418013037109375,0.009853696033293181,0.02596582062827257,-0.0195742340120824,1678123078.5427554
27.227041631471366,4.176835207268596,0.9287099279463291,1678123096.5526478,2.4588451049804685,-6.327874987792969,10.675745202636719,0.019840550121090324,0.04993427043898572,0.006391586616190171,1678123078.5515614
27.227041631471366,4.176835207268596,0.9287099279463291,1678123096.6523743,1.668758557128906,-2.1811177124023438,8.959102612304687,0.0033289513625990473,0.05805691176372739,-0.0223705531566656,1678123078.5616407
27.227041631471366,4.176835207268596,0.9287099279463291,1678123096.7522082,-0.9552864624023437,-0.8044517578125,8.240842114257813,0.05352953791059268,0.05446164429212042,-0.021305288720633905,1678123078.571458
28.63505425216863,4.413522772025317,0.9479280794039369,1678123096.868435,-5.379771130371093,-0.45968671875,9.141061938476563,0.032357407244462746,0.04061320662370838,-0.02316950148368937,1678123078.5815113
28.63505425216863,4.413522772025317,0.9479280794039369,1678123096.9524312,-6.421248852539062,-0.16759411621093748,10.43153663330078,0.0475374254579144,0.005459480234662438,0.021971078993153714,1678123078.5915055
28.63505425216863,4.413522772025317,0.9479280794039369,1678123097.052459,-6.490680700683593,-0.0909796630859375,9.586383447265625,0.021837920938649752,-0.040080574405692536,0.05086637682051345,1678123078.601499
28.63505425216863,4.413522772025317,0.9479280794039369,1678123097.1523778,-7.335833886718749,0.3591302490234375,10.465055456542968,0.024101607865217107,-0.10892328858424084,0.035952674716069714,1678123078.6115465
28.63505425216863,4.413522772025317,0.9479280794039369,1678123097.2522385,-2.6216508178710938,-1.5921441040039062,11.267113012695312,0.023036343429185407,-0.15406386906108394,-0.013049489341388266,1678123078.6215546
28.63505425216863,4.413522772025317,0.9479280794039369,1678123097.354076,0.2346317626953125,-1.5801730957031248,10.635043774414061,0.03195793308095086,-0.1709749419830871,0.06844324001503642,1678123078.631525
28.63505425216863,4.413522772025317,0.9479280794039369,1678123097.4524405,7.194575988769531,-1.7405846069335937,9.732429748535155,0.04114583884172423,-0.1520664982435245,0.03688478109759745,1678123078.642081
28.63505425216863,4.413522772025317,0.9479280794039369,1678123097.5524738,11.762712756347655,-3.3255461059570313,8.760383874511719,0.06538060476144529,-0.09627327340636446,0.029960562263391426,1678123078.6515515
28.63505425216863,4.413522772025317,0.9479280794039369,1678123097.651914,13.057975854492186,-2.9496564453125,8.992621435546875,0.07430219441321075,-0.0251668723012488,0.015046860158947694,1678123078.662002
28.63505425216863,4.413522772025317,0.9479280794039369,1678123097.7523434,14.958971972656249,-1.9512743530273435,9.02135185546875,0.11930961683554986,0.07523430079473847,-0.012383699068868458,1678123078.6714969
30.058082373987418,4.656874317675829,0.9455302907153964,1678123097.8738198,12.514492077636717,-2.863465185546875,11.080365283203124,0.12037488127158155,0.14434333108229472,-0.0430100516047797,1678123078.6815538
30.058082373987418,4.656874317675829,0.9455302907153964,1678123097.952678,8.348581188964843,1.649604943847656,9.97184991455078,0.10918960469324877,0.22290658323963225,-0.023835291756209184,1678123078.6915474
30.058082373987418,4.656874317675829,0.9455302907153964,1678123098.0521696,5.4707507934570305,4.527435339355469,9.586383447265625,0.09693906367888427,0.2535329357755435,-0.031558458917438977,1678123078.7015316
30.058082373987418,4.656874317675829,0.9455302907153964,1678123098.152494,-3.0119056884765625,5.4013189453125,9.82580361328125,0.05645901510967985,0.2653840026263961,0.03568635860706179,1678123078.711707
30.058082373987418,4.656874317675829,0.9455302907153964,1678123098.2523692,-6.150704064941406,4.240131140136718,9.361328491210937,0.01744370514001901,0.255130832429591,0.11052118523828838,1678123078.721539
30.058082373987418,4.656874317675829,0.9455302907153964,1678123098.356476,-10.733206042480468,5.516240625,8.353369592285155,-0.0006657902725198095,0.1858886440875308,0.1384843766841204,1678123078.731548
30.058082373987418,4.656874317675829,0.9455302907153964,1678123098.4522243,-13.098677282714842,3.986345764160156,8.729259252929687,-0.04713795129440252,0.10932276274775274,0.07576693301275432,1678123078.7424464
30.058082373987418,4.656874317675829,0.9455302907153964,1678123098.5532072,-10.702081420898438,4.04141240234375,8.420407238769531,-0.06964166250557208,0.022636869265673522,0.042743735495771776,1678123078.7516294
30.058082373987418,4.656874317675829,0.9455302907153964,1678123098.6527324,-10.398017810058594,3.373430139160156,8.59278975830078,-0.06804376585152452,-0.05512743456464023,0.16804546478399993,1678123078.7618678
30.058082373987418,4.656874317675829,0.9455302907153964,1678123098.752492,-9.421183532714844,-1.0462661254882812,10.050858569335936,-0.09520800897033277,-0.12530172928822816,0.1374191122480887,1678123078.771542
31.48016122955596,4.914613498840481,0.9969371594488621,1678123098.8753374,-1.5873557006835937,-3.907337109375,10.539275708007812,-0.06085323090831059,-0.18402443132447535,0.007057376888709981,1678123078.781608
31.48016122955596,4.914613498840481,0.9969371594488621,1678123098.9525425,-1.5370774658203123,-1.7549498168945312,9.612719665527344,-0.03781688747912518,-0.19028285988616156,-0.02090581455712202,1678123078.791527
31.48016122955596,4.914613498840481,0.9969371594488621,1678123099.0526464,7.369352709960937,-0.9600748657226562,9.318232861328125,-0.0001331580545039619,-0.16777914867499202,0.016245282649483352,1678123078.8015244
31.48016122955596,4.914613498840481,0.9969371594488621,1678123099.1522195,10.462661254882812,-0.9337386474609375,8.518569506835936,-0.009454221869781294,-0.12530172928822816,0.0083889574337496,1678123078.8117101
31.48016122955596,4.914613498840481,0.9969371594488621,1678123099.2522304,11.33175645751953,-3.5913024902343746,8.779537487792968,0.022770027320177483,-0.05139900903852929,0.04580637074936289,1678123078.8215914
31.48016122955596,4.914613498840481,0.9969371594488621,1678123099.3543563,11.286266625976562,-3.318363500976562,9.150638745117186,0.035819516661565756,0.029028455881863695,-0.07297061386817112,1678123078.8315675
31.48016122955596,4.914613498840481,0.9969371594488621,1678123099.4523025,8.683769421386717,-1.177947216796875,8.908824377441405,0.10439591473110613,0.09520800897033277,-0.06111954701731851,1678123078.8423343
31.48016122955596,4.914613498840481,0.9969371594488621,1678123099.5525236,4.094084838867187,0.7254431030273437,9.720458740234374,0.060187440635790776,0.12370383263418062,-0.08482168071902374,1678123078.8516507
31.48016122955596,4.914613498840481,0.9969371594488621,1678123099.652189,-1.707065783691406,3.5386300537109374,11.21683477783203,0.06977482056007604,0.1402154313926719,-0.033955303898510286,1678123078.8618133
31.48016122955596,4.914613498840481,0.9969371594488621,1678123099.7522268,-5.7508723876953125,-2.7844565307617186,13.273454003906249,0.03888215191515688,0.11371697854638348,0.04154531300523612,1678123078.8715224
32.91047630662797,5.155403756070882,1.0107009671628475,1678123099.8695114,-6.361393811035156,1.8459294799804686,11.058817468261719,-0.0022636869265673524,0.06072007285380662,0.01824265346704278,1678123078.8815637
32.91047630662797,5.155403756070882,1.0107009671628475,1678123099.9523544,-4.7381250854492185,1.429338391113281,8.793902697753905,0.029161613936367656,0.015313176267955617,-0.015046860158947694,1678123078.8913345
32.91047630662797,5.155403756070882,1.0107009671628475,1678123100.0521364,-4.687846850585937,1.0678139404296874,10.31661495361328,0.015046860158947694,-0.027430559227816155,0.0011984224905356572,1678123078.9015527
32.91047630662797,5.155403756070882,1.0107009671628475,1678123100.1522448,0.6057330200195312,-1.2473790649414063,9.991003527832031,0.0083889574337496,-0.029028455881863695,0.04407531604081139,1678123078.911747
32.91047630662797,5.155403756070882,1.0107009671628475,1678123100.2522473,1.4963760375976562,-1.5059528442382812,9.205705383300781,-0.004660531907638666,-0.029960562263391426,0.11371697854638348,1678123078.921631
32.91047630662797,5.155403756070882,1.0107009671628475,1678123100.3543596,3.6056677001953124,-3.318363500976562,7.44357296142578,-0.00972053797878922,-0.025433188410256723,0.09054747706269409,1678123078.9315703
32.91047630662797,5.155403756070882,1.0107009671628475,1678123100.453147,4.44363828125,-0.8547299926757812,8.482656481933594,0.02530003035575276,0.00905474770626941,0.02170476288414579,1678123078.9426074
32.91047630662797,5.155403756070882,1.0107009671628475,1678123100.5519657,2.674323254394531,-3.1387983764648437,6.868964562988281,0.0709732430506117,0.031158984753927088,0.08175904546543261,1678123078.9515896
32.91047630662797,5.155403756070882,1.0107009671628475,1678123100.652348,-0.28969840087890625,-3.6248213134765623,10.690110412597656,0.05552690872815212,0.035952674716069714,0.06191849534434229,1678123078.9619708
32.91047630662797,5.155403756070882,1.0107009671628475,1678123100.7524738,1.2689268798828124,-1.8028338500976562,8.95670841064453,0.1034638083495784,0.033156355571486516,0.030892668644919165,1678123078.9715285
34.3551747718011,5.3565713367424905,1.0168568789958954,1678123100.8702352,-3.423708374023437,-0.7996633544921875,9.548076220703125,0.07643272328527415,0.021971078993153714,0.03994741635118857,1678123078.9816341
34.3551747718011,5.3565713367424905,1.0168568789958954,1678123100.952362,-3.1292215698242187,-1.0726023437499999,10.060435375976562,0.11930961683554986,-0.00346210941710301,0.04620584491287478,1678123078.991392
34.3551747718011,5.3565713367424905,1.0168568789958954,1678123101.0533786,-2.920926025390625,-0.5865794067382812,11.061211669921875,0.13182647395892227,-0.03728425526110933,-0.0038615835806148956,1678123079.001551
34.3551747718011,5.3565713367424905,1.0168568789958954,1678123101.1524248,-1.867477294921875,-0.43574470214843747,11.152191333007812,0.11970909099906175,-0.05885586009075116,0.02436792397422503,1678123079.0117748
34.3551747718011,5.3565713367424905,1.0168568789958954,1678123101.2523434,0.9648632690429687,0.7422025146484375,9.241618408203124,0.10692591776668141,-0.07350324608618697,0.02077265650261806,1678123079.0215867
34.3551747718011,5.3565713367424905,1.0168568789958954,1678123101.3538187,1.9321207397460936,3.172317199707031,9.394847314453125,0.10945592080225669,-0.07084008499610774,0.02037318233910617,1678123079.031568
34.3551747718011,5.3565713367424905,1.0168568789958954,1678123101.4524093,5.2265422241210935,3.153163586425781,8.164227661132813,0.08588694515505543,-0.04394215798630743,0.02316950148368937,1678123079.0424361
34.3551747718011,5.3565713367424905,1.0168568789958954,1678123101.5523481,6.148309863281249,3.756502404785156,8.468291271972657,0.09147958344422183,-0.008255799379245638,0.01890844373956259,1678123079.051604
34.3551747718011,5.3565713367424905,1.0168568789958954,1678123101.6522267,5.851428857421874,0.21308394775390624,10.75714805908203,0.05299690569257683,0.015845808485971467,0.01691107292200316,1678123079.0616653
34.3551747718011,5.3565713367424905,1.0168568789958954,1678123101.7521272,3.976768957519531,3.3782185424804685,8.674192614746094,0.01038632825130903,0.052064799311049105,0.018508969576050704,1678123079.0715208
35.81716503406642,5.516840238124132,1.0350200086832047,1678123101.8706014,2.6144682128906247,2.2194249389648437,9.014169250488282,0.0464721610218827,0.06657902725198095,0.024767398137736915,1678123079.0816119
35.81716503406642,5.516840238124132,1.0350200086832047,1678123101.9522915,0.105344873046875,0.3854664672851562,8.437166650390624,0.01251685712337242,0.08535431293703959,0.03648530693408556,1678123079.0915287
35.81716503406642,5.516840238124132,1.0350200086832047,1678123102.052411,-0.6751648681640625,0.4429273071289062,10.134655627441406,0.022237395102161637,0.054727960401128345,0.024501082028728992,1678123079.1015418
35.81716503406642,5.516840238124132,1.0350200086832047,1678123102.1520102,-2.971204260253906,2.530671154785156,8.731653454589843,0.017710021249026934,0.04940163822096987,0.003062635253591124,1678123079.1116092
35.81716503406642,5.516840238124132,1.0350200086832047,1678123102.252335,-4.129997863769531,0.44532150878906246,10.084377392578125,-0.0049268480166465905,0.022636869265673522,0.012916331286884304,1678123079.1215768
35.81716503406642,5.516840238124132,1.0350200086832047,1678123102.3538587,-2.0566192260742184,2.1739351074218747,9.361328491210937,-0.011052118523828838,0.003062635253591124,0.0018642127630554665,1678123079.1315522
35.81716503406642,5.516840238124132,1.0350200086832047,1678123102.4526935,-1.0366893188476562,1.5873557006835937,9.4618849609375,0.012783173232380343,-0.024900556192240877,0.02876213977285577,1678123079.1429038
35.81716503406642,5.516840238124132,1.0350200086832047,1678123102.55223,-2.6384102294921874,0.48123453369140623,9.552864624023437,-0.023968449810713145,-0.05113269292952137,-0.02596582062827257,1678123079.1516154
35.81716503406642,5.516840238124132,1.0350200086832047,1678123102.6524484,1.3479355346679687,0.8403647827148437,9.502586389160156,0.022903185374681445,-0.05099953487501741,-0.011318434632836761,1678123079.1617303
35.81716503406642,5.516840238124132,1.0350200086832047,1678123102.7523472,2.7629087158203123,-1.3934253662109375,10.034099157714843,-0.015446334322459582,-0.03568635860706179,-0.0195742340120824,1678123079.1715326
37.27064545202302,5.689411814790219,1.036648322828114,1678123102.8743887,4.88417138671875,0.7134720947265625,10.101136804199218,0.01810949541253882,-0.0268979270098003,-0.01597896654047543,1678123079.1815517
37.27064545202302,5.689411814790219,1.036648322828114,1678123102.9520695,4.316745593261719,1.4628572143554686,10.275913525390624,0.0167779148674992,0.001331580545039619,-0.03289003946247859,1678123079.1916497
37.27064545202302,5.689411814790219,1.036648322828114,1678123103.0520606,5.142745166015625,1.484405029296875,9.289502441406249,0.008122641324741676,0.041944787168748006,0.02716424311880823,1678123079.2015197
37.27064545202302,5.689411814790219,1.036648322828114,1678123103.1524627,2.9041666137695312,0.6009446166992187,11.295843432617186,-0.0011984224905356572,0.073370088031683,-0.041012680787220264,1678123079.2115834
37.27064545202302,5.689411814790219,1.036648322828114,1678123103.253376,1.4101847778320311,1.2593500732421874,9.976638317871092,0.00625842856168621,0.08122641324741676,-0.002530003035575276,1678123079.2216852
37.27064545202302,5.689411814790219,1.036648322828114,1678123103.3535938,0.1388636962890625,2.817975354003906,11.298237634277344,-0.019041601794066554,0.07243798165015528,-0.021172130666129944,1678123079.231549
37.27064545202302,5.689411814790219,1.036648322828114,1678123103.4521432,-2.281674182128906,3.718195178222656,8.942343200683593,-0.015313176267955617,0.07603324912176225,0.008921589651765448,1678123079.2429056
37.27064545202302,5.689411814790219,1.036648322828114,1678123103.552475,-3.1771056030273437,2.327164013671875,10.85291612548828,-0.0503337446024976,0.03768372942462122,0.0391484680241648,1678123079.2515516
37.27064545202302,5.689411814790219,1.036648322828114,1678123103.652748,-2.061407629394531,4.357447021484375,9.052476477050782,-0.08069378102940092,0.020639498448114094,-0.001331580545039619,1678123079.261665
37.27064545202302,5.689411814790219,1.036648322828114,1678123103.7523792,-1.867477294921875,2.437297290039062,8.312668164062499,-0.06311691783487795,0.0014647385995435807,-0.011052118523828838,1678123079.2715755
38.71226425183704,5.89982622070238,1.0303700463846326,1678123103.8683574,-1.1468225952148436,0.9624690673828125,8.609549169921875,-0.09733853784239616,-0.014647385995435809,0.054062170128608526,1678123079.2815425
38.71226425183704,5.89982622070238,1.0303700463846326,1678123103.952388,2.7174188842773437,0.055066638183593745,8.971073620605468,-0.06897587223305227,-0.0003994741635118857,0.02609897868277653,1678123079.2916644
38.71226425183704,5.89982622070238,1.0303700463846326,1678123104.0523105,2.6312276245117188,2.0757728393554684,6.248866333007812,-0.08575378710055147,0.00905474770626941,-0.028895297827359733,1678123079.3015447
38.71226425183704,5.89982622070238,1.0303700463846326,1678123104.151989,2.932897033691406,-0.6847416748046875,9.526528405761718,-0.09760485395140409,0.011584750741844684,-0.02783003339132804,1678123079.311632
38.71226425183704,5.89982622070238,1.0303700463846326,1678123104.2522628,2.0183119995117185,-0.3232172241210937,11.319785449218749,-0.08588694515505543,0.025699504519264647,0.013715279613908078,1678123079.3217368
38.71226425183704,5.89982622070238,1.0303700463846326,1678123104.3538773,2.01112939453125,-1.6256629272460936,8.961496813964843,-0.0660463950339651,0.05765743760021551,0.07723167161229791,1678123079.3315737
38.71226425183704,5.89982622070238,1.0303700463846326,1678123104.4523606,-0.36391865234375,-1.9009961181640624,10.764330664062498,-0.07763114577580979,0.04340952576829158,-0.036751623043093484,1678123079.3431675
38.71226425183704,5.89982622070238,1.0303700463846326,1678123104.5522256,-0.8930372192382812,-0.00718260498046875,8.997409838867187,-0.03808320358813311,0.03209109113545482,-0.015180018213451656,1678123079.3516278
38.71226425183704,5.89982622070238,1.0303700463846326,1678123104.6522021,-2.607285607910156,0.016759411621093748,9.97184991455078,-0.0636495500528938,0.019840550121090324,0.0023968449810713144,1678123079.3616388
38.71226425183704,5.89982622070238,1.0303700463846326,1678123104.7533884,-2.0638018310546875,1.2761094848632812,10.522516296386717,-0.036751623043093484,0.0111852765783328,-0.02024002428460221,1678123079.3717272
40.16080889181467,6.137950866948813,1.0316288955509663,1678123104.8696692,-1.189918225097656,-1.2401964599609374,9.775525378417969,-0.04127899689622819,-0.008921589651765448,-0.0021305288720633903,1678123079.3815584
40.16080889181467,6.137950866948813,1.0316288955509663,1678123104.9521425,-1.956062756347656,-1.8698714965820311,9.205705383300781,-0.06338323394388587,-0.02530003035575276,0.053263221801584756,1678123079.391588
40.16080889181467,6.137950866948813,1.0316288955509663,1678123105.052042,-0.6919242797851562,-0.7493851196289062,7.802703210449218,-0.049801112384481754,-0.04554005464035497,-0.01265001517787638,1678123079.40158
40.16080889181467,6.137950866948813,1.0316288955509663,1678123105.152491,0.565031591796875,-1.8243816650390623,9.591171850585937,-0.03368898778950236,-0.05805691176372739,-0.019307917903074477,1678123079.411589
40.16080889181467,6.137950866948813,1.0316288955509663,1678123105.252692,1.139639990234375,-1.0342951171875,10.405200415039062,-0.037417413315613296,-0.053662695965096645,-0.013315805450396189,1678123079.4217725
40.16080889181467,6.137950866948813,1.0316288955509663,1678123105.3537953,3.411737365722656,0.4836287353515625,8.180987072753906,-0.02596582062827257,-0.05446164429212042,0.04340952576829158,1678123079.4315588
40.16080889181467,6.137950866948813,1.0316288955509663,1678123105.4520721,3.3638533325195312,-2.4756045166015626,11.67652149658203,-0.030626352535911235,-0.050466902657001565,0.04833637378493817,1678123079.4431481
40.16080889181467,6.137950866948813,1.0316288955509663,1678123105.5529947,6.562506750488281,-1.3646949462890625,10.156203442382813,-0.04074636467821234,-0.005459480234662438,-0.008122641324741676,1678123079.451587
40.16080889181467,6.137950866948813,1.0316288955509663,1678123105.6524389,5.755660791015624,-2.7461493041992187,8.992621435546875,0.012383699068868458,0.0391484680241648,0.033289513625990474,1678123079.4616861
40.16080889181467,6.137950866948813,1.0316288955509663,1678123105.7521758,6.263231542968749,-3.447650390625,10.137049829101562,-0.014514227940931847,0.06964166250557208,0.04793689962142629,1678123079.4717467
41.60406889737351,6.3645701627247036,1.0266151670366526,1678123105.8670893,4.3454760131835934,-2.7964275390625,9.150638745117186,0.042077945223251964,0.0954743250793407,0.02503371424674484,1678123079.4815764
41.60406889737351,6.3645701627247036,1.0266151670366526,1678123105.952649,2.319981408691406,-0.9121908325195311,8.489839086914062,0.04727110934890648,0.1366201639210649,-0.03368898778950236,1678123079.49166
41.60406889737351,6.3645701627247036,1.0266151670366526,1678123106.0524235,-1.3575123413085937,-0.6560112548828124,9.05965908203125,0.04767058351241837,0.13502226726701735,0.012250541014364496,1678123079.5015519
41.60406889737351,6.3645701627247036,1.0266151670366526,1678123106.1522095,-2.8323405639648436,1.8914193115234375,9.425971936035156,0.02716424311880823,0.1174454040724944,0.013182647395892227,1678123079.5116248
41.60406889737351,6.3645701627247036,1.0266151670366526,1678123106.2522876,-5.025429284667968,3.019088293457031,8.046911779785155,0.02343581759269729,0.07123955915961962,0.058989018145255125,1678123079.5216782
41.60406889737351,6.3645701627247036,1.0266151670366526,1678123106.3542588,-8.180987072753906,2.77727392578125,10.275913525390624,-0.00692421883420602,0.023702133701705222,-0.017576863194522972,1678123079.5315852
41.60406889737351,6.3645701627247036,1.0266151670366526,1678123106.452487,-4.527435339355469,3.81156904296875,8.84178673095703,-0.005193164125654515,-0.010519486305812991,0.03528688444354991,1678123079.5434628
41.60406889737351,6.3645701627247036,1.0266151670366526,1678123106.5523343,-3.038241906738281,3.778050219726562,7.716511950683593,-0.0636495500528938,-0.05566006678265608,0.06857639806954038,1678123079.5516133
41.60406889737351,6.3645701627247036,1.0266151670366526,1678123106.6524742,-1.254561669921875,2.5953145996093747,8.573636145019531,-0.06551376281594926,-0.07590009106725829,0.03688478109759745,1678123079.5617023
41.60406889737351,6.3645701627247036,1.0266151670366526,1678123106.75212,1.3455413330078123,0.3064578125,7.64229169921875,-0.05992112452678285,-0.08828379013612674,0.035020568334541986,1678123079.5716896
43.06229751079809,6.596602637786418,1.0379055682569742,1678123106.8696365,1.7286135986328124,-2.3511060302734372,9.011775048828124,-0.05965480841777493,-0.06791060779702057,0.0849548387735277,1678123079.5815926
43.06229751079809,6.596602637786418,1.0379055682569742,1678123106.952425,4.3263223999023435,-2.877830395507812,8.741230261230468,-0.06085323090831059,-0.055793224837160045,0.015446334322459582,1678123079.5916767
43.06229751079809,6.596602637786418,1.0379055682569742,1678123107.0523334,3.2632968627929686,-1.9632453613281249,9.598354455566406,-0.04460794825882724,-0.05392901207410457,0.019041601794066554,1678123079.6015732
43.06229751079809,6.596602637786418,1.0379055682569742,1678123107.1522431,1.2928688964843749,0.8188169677734375,10.378864196777343,-0.025433188410256723,-0.037550571370117254,-0.0003994741635118857,1678123079.6116264
43.06229751079809,6.596602637786418,1.0379055682569742,1678123107.2525976,1.180341418457031,3.1387983764648437,7.71890615234375,-0.005992112452678286,-0.029827404208887465,-0.02157160482964183,1678123079.6218157
43.06229751079809,6.596602637786418,1.0379055682569742,1678123107.353857,0.11013327636718749,0.9648632690429687,10.58476553955078,-0.02956108809987954,-0.027031085064304263,-0.025566346464760685,1678123079.6315725
43.06229751079809,6.596602637786418,1.0379055682569742,1678123107.4522533,0.8714894042968749,5.224148022460938,9.291896643066405,-0.062317969507854176,-0.029161613936367656,-0.04327636771378762,1678123079.642886
43.06229751079809,6.596602637786418,1.0379055682569742,1678123107.552126,2.2673089721679687,1.886630908203125,10.740388647460938,-0.05166532514753722,-0.027430559227816155,-0.015046860158947694,1678123079.651639
43.06229751079809,6.596602637786418,1.0379055682569742,1678123107.6524863,2.3439234252929686,1.0295067138671874,12.619836950683593,-0.07629956523077018,-0.004527373853134705,-0.010785802414820914,1678123079.6617608
43.06229751079809,6.596602637786418,1.0379055682569742,1678123107.7524776,3.845087866210937,-0.6536170532226562,11.145008728027342,-0.059388492308767006,0.010918960469324876,-0.00692421883420602,1678123079.6717257
44.533150079718325,6.80600111046806,1.0434155566617846,1678123107.8674808,5.856217260742187,-0.8307879760742187,10.115502014160155,-0.07843009410283357,0.03994741635118857,-0.016245282649483352,1678123079.6815977
44.533150079718325,6.80600111046806,1.0434155566617846,1678123107.9523354,4.608838195800781,-0.5961562133789062,11.142614526367186,-0.0643153403254136,0.07243798165015528,0.005725796343670361,1678123079.691668
44.533150079718325,6.80600111046806,1.0434155566617846,1678123108.0539927,3.7229835815429686,-1.2713210815429687,11.0707884765625,-0.06032059869029474,0.11158644967432009,-0.01810949541253882,1678123079.701456
44.533150079718325,6.80600111046806,1.0434155566617846,1678123108.1523845,0.7398083129882812,-0.38786066894531246,9.923965881347655,-0.047404267403410444,0.11598066547295081,0.03555320055255783,1678123079.7116423
44.533150079718325,6.80600111046806,1.0434155566617846,1678123108.2521715,-1.917755529785156,0.5267243652343749,8.901641772460938,-0.08056062297489695,0.12290488430715685,-0.02077265650261806,1678123079.7216911
44.533150079718325,6.80600111046806,1.0434155566617846,1678123108.3539147,-1.3263877197265623,0.7757213378906249,9.0021982421875,-0.06591323697946114,0.09640643146086843,0.03981425829668461,1678123079.731586
44.533150079718325,6.80600111046806,1.0434155566617846,1678123108.4521592,-5.298368273925781,-0.05985504150390625,8.968679418945312,-0.10146643753201898,0.06737797557900473,0.04620584491287478,1678123079.7435744
44.533150079718325,6.80600111046806,1.0434155566617846,1678123108.5524237,-6.1626750732421876,-0.41898529052734373,11.271901416015623,-0.0755006169037464,0.015845808485971467,0.017843179303530896,1678123079.7517664
44.533150079718325,6.80600111046806,1.0434155566617846,1678123108.6522048,-4.455609289550781,-1.465251416015625,9.222464794921875,-0.08175904546543261,-0.023968449810713145,0.005992112452678286,1678123079.7616374
44.533150079718325,6.80600111046806,1.0434155566617846,1678123108.7521808,-3.162740393066406,-1.419761584472656,9.165003955078124,-0.08069378102940092,-0.05086637682051345,0.07163903332313151,1678123079.771715
46.00804580823751,6.99820309272036,1.0490400455892086,1678123108.8707273,0.8954314208984374,-2.068590234375,7.867346655273437,-0.073370088031683,-0.06777744974251661,0.00346210941710301,1678123079.781609
46.00804580823751,6.99820309272036,1.0490400455892086,1678123108.9526217,1.9225439331054686,-2.583343591308594,8.774749084472656,-0.04567321269485893,-0.06737797557900473,0.01731054708551505,1678123079.7916553
46.00804580823751,6.99820309272036,1.0490400455892086,1678123109.0524778,4.778826513671874,-0.33758243408203126,8.075642199707032,-0.04727110934890648,-0.040213732460196494,-0.029694246154383503,1678123079.801603
46.00804580823751,6.99820309272036,1.0490400455892086,1678123109.1524565,5.104437939453125,0.967257470703125,6.069301208496094,-0.02170476288414579,-0.008921589651765448,0.0014647385995435807,1678123079.8116386
46.00804580823751,6.99820309272036,1.0490400455892086,1678123109.2525015,4.584896179199219,-3.31357509765625,10.414777221679687,-0.01890844373956259,0.021971078993153714,0.016378440703987314,1678123079.8217077
46.00804580823751,6.99820309272036,1.0490400455892086,1678123109.3540416,2.4396914916992185,-0.1388636962890625,9.215282189941405,-0.021438446775137867,0.0391484680241648,-0.010519486305812991,1678123079.831579
46.00804580823751,6.99820309272036,1.0490400455892086,1678123109.4522183,0.6560112548828124,-1.2138602416992186,10.223241088867187,0.023702133701705222,0.05446164429212042,-0.043542683822795546,1678123079.8430727
46.00804580823751,6.99820309272036,1.0490400455892086,1678123109.5521786,-3.2154128295898436,-1.599326708984375,10.419565624999999,0.014913702104443732,0.03688478109759745,0.011984224905356573,1678123079.8516302
46.00804580823751,6.99820309272036,1.0490400455892086,1678123109.6532872,-2.8730419921875,0.23223756103515625,12.54561669921875,0.012250541014364496,0.01731054708551505,-0.005326322180158476,1678123079.8616772
46.00804580823751,6.99820309272036,1.0490400455892086,1678123109.752345,-3.31357509765625,2.7748797241210936,10.002974536132811,-0.0018642127630554665,-0.0195742340120824,-0.014647385995435809,1678123079.871685
47.46462291863281,7.183284249622375,1.0158725455403328,1678123109.8734512,-3.864241479492187,0.2920926025390625,9.986215124511718,0.0031957933080950856,-0.04567321269485893,-0.011451592687340723,1678123079.881604
47.46462291863281,7.183284249622375,1.0158725455403328,1678123109.9522567,0.8283937744140625,1.905784521484375,10.869675537109375,-0.023835291756209184,-0.04327636771378762,-0.02596582062827257,1678123079.8916698
47.46462291863281,7.183284249622375,1.0158725455403328,1678123110.0523958,3.009511486816406,2.032677209472656,8.968679418945312,-0.0010652644360316951,-0.04234426133225989,0.014114753777419962,1678123079.9015954
47.46462291863281,7.183284249622375,1.0158725455403328,1678123110.1523836,4.910507604980468,2.8419173706054686,10.081983190917969,-0.056592173164183815,-0.017843179303530896,-0.023702133701705222,1678123079.9116318
47.46462291863281,7.183284249622375,1.0158725455403328,1678123110.2522159,6.471527087402343,2.308010400390625,6.272808349609375,-0.044341632149819316,0.003062635253591124,0.046072686858370814,1678123079.9216328
47.46462291863281,7.183284249622375,1.0158725455403328,1678123110.3537674,6.430825659179687,1.5227122558593749,7.8721350585937495,-0.10306433418606652,0.05352953791059268,0.03781688747912518,1678123079.931612
47.46462291863281,7.183284249622375,1.0158725455403328,1678123110.452409,4.484339709472656,2.2481553588867187,7.060500695800781,-0.09267800593475747,0.08442220655551186,0.03528688444354991,1678123079.9431334
47.46462291863281,7.183284249622375,1.0158725455403328,1678123110.552338,0.9002198242187499,1.1516109985351561,7.127538342285156,-0.08588694515505543,0.10373012445858633,0.03968110024218065,1678123079.9517217
47.46462291863281,7.183284249622375,1.0158725455403328,1678123110.6522257,-1.0199299072265624,0.5315127685546874,8.195352282714843,-0.10745854998469725,0.10186591169553086,0.10812434025721705,1678123079.9617236
47.46462291863281,7.183284249622375,1.0158725455403328,1678123110.7522085,-4.529829541015625,-0.9720458740234375,8.645462194824217,-0.12503541317922023,0.07749798772130584,0.0346210941710301,1678123079.9716742
48.945752668369096,7.384721086360514,1.0250712409615517,1678123110.872616,-5.719747766113281,-2.568978381347656,10.007762939453125,-0.08828379013612674,0.03368898778950236,0.06684534336098888,1678123079.9816334
48.945752668369096,7.384721086360514,1.0250712409615517,1678123110.9523582,-4.934449621582031,-4.350264416503906,9.047688073730468,-0.0782969360483296,-0.002663161090079238,0.04940163822096987,1678123079.9917767
48.945752668369096,7.384721086360514,1.0250712409615517,1678123111.0530884,-3.4572271972656248,-4.364629626464843,9.840168823242188,-0.04340952576829158,-0.03448793611652613,0.03422162000751821,1678123080.001643
48.945752668369096,7.384721086360514,1.0250712409615517,1678123111.1520746,-3.758896606445312,-8.204929089355469,11.520898388671874,0.003062635253591124,-0.08016114881138507,0.01944107595757844,1678123080.011692
48.945752668369096,7.384721086360514,1.0250712409615517,1678123111.2521148,-0.23223756103515625,-5.849034655761718,9.550470422363281,0.02157160482964183,-0.08961537068116636,0.00625842856168621,1678123080.0216687
48.945752668369096,7.384721086360514,1.0250712409615517,1678123111.354019,1.9800047729492187,-5.023035083007812,9.421183532714844,0.08375641628299205,-0.09361011231628522,-0.01824265346704278,1678123080.0316339
48.945752668369096,7.384721086360514,1.0250712409615517,1678123111.4522338,3.7205893798828122,-6.205770703124999,9.318232861328125,0.08349010017398412,-0.08695220959108713,0.0066579027251980945,1678123080.0424933
48.945752668369096,7.384721086360514,1.0250712409615517,1678123111.5532894,3.758896606445312,-3.2537200561523436,10.488997473144531,0.1255680453972361,-0.05885586009075116,-0.013049489341388266,1678123080.051771
48.945752668369096,7.384721086360514,1.0250712409615517,1678123111.6528013,3.1100679565429687,-3.4763808105468748,6.555324145507812,0.1576591365326909,-0.022770027320177483,-0.037550571370117254,1678123080.0618412
48.945752668369096,7.384721086360514,1.0250712409615517,1678123111.752226,0.5003881469726562,-4.3430818115234375,11.118672509765624,0.15113439186199676,-0.021837920938649752,-0.0475374254579144,1678123080.071635
50.40571058093337,7.624786995816976,1.0065229311585426,1678123111.8731074,1.6208745239257811,-1.438915197753906,10.615890161132812,0.150335443534973,-0.017044230976507122,-0.021971078993153714,1678123080.0816438
50.40571058093337,7.624786995816976,1.0065229311585426,1678123111.952092,0.4644751220703125,-1.2425906616210938,10.065223779296874,0.1649828295304088,-0.019840550121090324,0.0011984224905356572,1678123080.0916033
50.40571058093337,7.624786995816976,1.0065229311585426,1678123112.0520992,-1.3527239379882812,0.41898529052734373,11.042058056640624,0.1426122763737432,-0.018642127630554665,-0.0223705531566656,1678123080.1016524
50.40571058093337,7.624786995816976,1.0065229311585426,1678123112.1523738,2.4013842651367185,-1.216254443359375,10.536881506347656,0.15459650127909977,-0.026232136737280493,0.014381069886427886,1678123080.1116953
50.40571058093337,7.624786995816976,1.0065229311585426,1678123112.252224,3.6104561035156246,1.419761584472656,11.8369330078125,0.11198592383783197,-0.015845808485971467,0.035153726389045944,1678123080.1216722
50.40571058093337,7.624786995816976,1.0065229311585426,1678123112.3540142,4.6447512207031245,0.9840168823242187,8.78432589111328,0.10306433418606652,0.012383699068868458,0.03142530086293501,1678123080.1319273
50.40571058093337,7.624786995816976,1.0065229311585426,1678123112.4521484,6.011840368652344,0.8690952026367187,10.474632263183594,0.10213222780453877,0.03994741635118857,0.04141215495073215,1678123080.1445553
50.40571058093337,7.624786995816976,1.0065229311585426,1678123112.5524817,6.100425830078125,-0.24899697265624998,10.211270080566406,0.10985539496576859,0.09108010928070993,0.09094695122620598,1678123080.1517496
50.40571058093337,7.624786995816976,1.0065229311585426,1678123112.652451,4.814739538574218,0.5506663818359374,10.773907470703124,0.07749798772130584,0.1198422490535657,0.009454221869781294,1678123080.1625242
50.40571058093337,7.624786995816976,1.0065229311585426,1678123112.7521439,2.6527754394531247,2.04943662109375,11.221623181152344,0.10586065333064971,0.1430117505372551,0.013182647395892227,1678123080.1716745
51.86778038466582,7.86597945401445,1.009900408796966,1678123112.874788,0.34237083740234375,2.482787121582031,8.525752111816406,0.060986388962814546,0.14274543442824716,0.049801112384481754,1678123080.181687
51.86778038466582,7.86597945401445,1.009900408796966,1678123112.952332,-3.4572271972656248,3.9719805541992184,9.727641345214844,0.0800279907568811,0.13994911528366397,0.048869006002954025,1678123080.1916223
51.86778038466582,7.86597945401445,1.009900408796966,1678123113.0524867,-3.229778039550781,1.659181750488281,8.920795385742187,0.058989018145255125,0.10612696943965763,0.05632585705517589,1678123080.2016928
51.86778038466582,7.86597945401445,1.009900408796966,1678123113.152292,-5.2265422241210935,2.817975354003906,8.86094034423828,0.033289513625990474,0.08229167768344846,0.08855010624513467,1678123080.2118719
51.86778038466582,7.86597945401445,1.009900408796966,1678123113.2523484,-3.842693664550781,2.798821740722656,8.343792785644531,0.025566346464760685,0.030493194481407273,0.012250541014364496,1678123080.221706
51.86778038466582,7.86597945401445,1.009900408796966,1678123113.3540292,-5.5832782714843745,4.015076184082031,8.935160595703124,0.005193164125654515,-0.013049489341388266,0.038615835806148954,1678123080.2317755
51.86778038466582,7.86597945401445,1.009900408796966,1678123113.452241,-1.3958195678710936,3.134009973144531,11.02529864501953,0.014514227940931847,-0.020106866230098247,0.061519021180830406,1678123080.2425532
51.86778038466582,7.86597945401445,1.009900408796966,1678123113.5521615,1.9009961181640624,4.144363073730468,7.556100439453124,-0.010253170196805066,-0.036618464988589526,0.04261057744126781,1678123080.251763
51.86778038466582,7.86597945401445,1.009900408796966,1678123113.6521916,4.527435339355469,1.8148048583984373,9.641450085449218,-0.02596582062827257,-0.03528688444354991,0.011584750741844684,1678123080.26205
51.86778038466582,7.86597945401445,1.009900408796966,1678123113.7533736,6.9719152343749995,3.6176387084960937,8.219294299316406,-0.03488741028003802,-0.0006657902725198095,-0.018375811521546742,1678123080.2716758
53.290465605445206,8.157699164468795,0.965694678016007,1678123113.868113,6.323086584472656,0.5123591552734374,6.404489440917969,-0.013182647395892227,0.04620584491287478,0.05952165036327097,1678123080.2816992
53.290465605445206,8.157699164468795,0.965694678016007,1678123113.9520624,5.427655163574219,1.0869675537109373,8.341398583984375,-0.06870955612404435,0.094409060643309,0.031558458917438977,1678123080.2916162
53.290465605445206,8.157699164468795,0.965694678016007,1678123114.0521433,3.0119056884765625,0.6248866333007812,6.653486413574218,-0.03488741028003802,0.11797803629051025,0.012783173232380343,1678123080.3016806
53.290465605445206,8.157699164468795,0.965694678016007,1678123114.152436,-1.0797849487304687,1.1348515869140625,9.785102185058593,-0.05952165036327097,0.11478224298241517,0.005992112452678286,1678123080.3118534
53.290465605445206,8.157699164468795,0.965694678016007,1678123114.2525105,-5.521029028320312,2.674323254394531,10.20887587890625,-0.06178533728983833,0.09361011231628522,0.04114583884172423,1678123080.3217685
53.290465605445206,8.157699164468795,0.965694678016007,1678123114.3538096,-4.939238024902344,2.281674182128906,11.947066284179687,-0.07390272024969885,0.061385863126326434,-0.023036343429185407,1678123080.3316824
53.290465605445206,8.157699164468795,0.965694678016007,1678123114.4522088,-6.0142345703124995,2.47081611328125,10.78348427734375,-0.06990797861458001,0.010785802414820914,0.0055926382891664,1678123080.342538
53.290465605445206,8.157699164468795,0.965694678016007,1678123114.5523524,-4.604049792480469,1.2641384765625,11.176133349609374,-0.0989364344964437,-0.026498452846288417,-0.041012680787220264,1678123080.3517153
53.290465605445206,8.157699164468795,0.965694678016007,1678123114.652553,-1.2114660400390624,0.4740519287109375,11.508927380371093,-0.0765658813397781,-0.0537958540196006,-0.016245282649483352,1678123080.3619425
53.290465605445206,8.157699164468795,0.965694678016007,1678123114.7522264,4.546588952636719,-0.5602431884765625,9.481038574218749,-0.13076120952289058,-0.049801112384481754,-0.027430559227816155,1678123080.371667
54.70379592460813,8.420352026354522,0.9481300842016935,1678123114.8710973,6.074089611816406,0.6919242797851562,9.528922607421874,-0.09174589955322975,-0.007057376888709981,-0.014381069886427886,1678123080.3816953
54.70379592460813,8.420352026354522,0.9481300842016935,1678123114.9522603,7.572859851074218,-0.29448680419921874,7.3478048950195305,-0.08881642235414258,0.03302319751698255,0.009986854087797143,1678123080.3918042
54.70379592460813,8.420352026354522,0.9481300842016935,1678123115.0524874,6.399701037597656,-0.28730419921875,9.076418493652342,-0.11917645878104591,0.0860201032095594,-0.008122641324741676,1678123080.4016607
54.70379592460813,8.420352026354522,0.9481300842016935,1678123115.1526668,4.388571643066406,0.0383072265625,7.900865478515625,-0.10612696943965763,0.12397014874318854,-0.07763114577580979,1678123080.4117234
54.70379592460813,8.420352026354522,0.9481300842016935,1678123115.2522159,-1.0582371337890624,-0.22744915771484372,8.817844714355468,-0.09334379620727729,0.13329121255846588,0.011318434632836761,1678123080.4217095
54.70379592460813,8.420352026354522,0.9481300842016935,1678123115.354143,-4.048595007324218,0.028730419921875,9.07163009033203,-0.10719223387568932,0.12064119738058948,0.006524744670694133,1678123080.43172
54.70379592460813,8.420352026354522,0.9481300842016935,1678123115.4524784,-6.404489440917969,1.0726023437499999,8.91840118408203,-0.08921589651765448,0.06524744670694134,-0.03768372942462122,1678123080.4447527
54.70379592460813,8.420352026354522,0.9481300842016935,1678123115.5525172,-8.568847741699217,-2.6096798095703124,11.135431921386719,-0.09454221869781296,0.00905474770626941,-0.022903185374681445,1678123080.451686
54.70379592460813,8.420352026354522,0.9481300842016935,1678123115.6523194,-6.291961962890625,-1.5442600708007812,9.765948571777344,-0.10199906975003482,-0.05179848320204118,0.003994741635118857,1678123080.4618847
54.70379592460813,8.420352026354522,0.9481300842016935,1678123115.7522027,-3.308786694335937,-0.4429273071289062,8.243236315917969,-0.08135957130192072,-0.1006674892049952,-0.02583266257376861,1678123080.4716823
56.12408155546291,8.683709647506475,0.9383465396240354,1678123115.8705876,-0.6919242797851562,-1.4724340209960938,8.853757739257812,-0.06897587223305227,-0.11331750438287158,-0.033289513625990474,1678123080.481675
56.12408155546291,8.683709647506475,0.9383465396240354,1678123115.9522007,3.564966271972656,-2.0183119995117185,9.97184991455078,-0.04633900296737874,-0.11105381745630424,-0.05752427954571154,1678123080.491747
56.12408155546291,8.683709647506475,0.9383465396240354,1678123116.0522156,7.266402038574219,-0.22266075439453123,7.4603323730468745,-0.05020058654799364,-0.07230482359565131,-0.057790595654719466,1678123080.5016375
56.12408155546291,8.683709647506475,0.9383465396240354,1678123116.1522567,7.970297326660156,-1.189918225097656,8.042123376464843,-0.06524744670694134,-0.0268979270098003,-0.04114583884172423,1678123080.511683
56.12408155546291,8.683709647506475,0.9383465396240354,1678123116.2521815,7.228094812011718,0.22744915771484372,8.432378247070313,-0.07017429472358792,0.03302319751698255,-0.04953479627547383,1678123080.5217326
56.12408155546291,8.683709647506475,0.9383465396240354,1678123116.354297,3.797203833007812,-0.01915361328125,7.917624890136718,-0.040879522732716306,0.06817692390602849,0.024101607865217107,1678123080.531656
56.12408155546291,8.683709647506475,0.9383465396240354,1678123116.4519806,-0.9050082275390624,-1.3215993164062498,10.884040747070312,-0.07496798468573054,0.08482168071902374,-0.05685848927319174,1678123080.543417
56.12408155546291,8.683709647506475,0.9383465396240354,1678123116.5520368,-2.7653029174804686,-0.7948749511718749,9.78031378173828,-0.034354778062022175,0.06005428258128682,-0.008522115488253561,1678123080.5516765
56.12408155546291,8.683709647506475,0.9383465396240354,1678123116.652442,-5.422866760253906,-1.8291700683593748,10.87925234375,-0.07243798165015528,0.029827404208887465,-0.003062635253591124,1678123080.5617628
56.12408155546291,8.683709647506475,0.9383465396240354,1678123116.7524135,-6.880935571289062,1.3527239379882812,10.850521923828124,-0.055793224837160045,-0.017976337358034857,-0.04167847105974008,1678123080.5717351
57.52370798861375,8.952982044313103,0.8966811913996935,1678123116.8719535,-4.826710546875,-0.35673604736328124,9.952696301269532,-0.04727110934890648,-0.06644586919747698,-0.025566346464760685,1678123080.5816622
57.52370798861375,8.952982044313103,0.8966811913996935,1678123116.952195,-2.8371289672851563,-2.408566870117187,10.220846887207031,-0.05273058958356891,-0.08881642235414258,0.04833637378493817,1678123080.5917847
57.52370798861375,8.952982044313103,0.8966811913996935,1678123117.0524216,0.46686932373046874,-2.5665841796874997,8.647856396484375,-0.060187440635790776,-0.1034638083495784,-0.017843179303530896,1678123080.601552
57.52370798861375,8.952982044313103,0.8966811913996935,1678123117.1531422,2.6503812377929687,-1.5777788940429687,8.789114294433594,-0.030759510590415203,-0.108390656366225,-0.04580637074936289,1678123080.6117072
57.52370798861375,8.952982044313103,0.8966811913996935,1678123117.2524846,5.305550878906249,-0.8858546142578124,8.580818749999999,-0.04953479627547383,-0.08588694515505543,-0.036751623043093484,1678123080.621782
57.52370798861375,8.952982044313103,0.8966811913996935,1678123117.3539944,6.212953308105468,0.8882488159179687,8.267178332519531,-0.00346210941710301,-0.04407531604081139,0.015579492376963544,1678123080.6316783
57.52370798861375,8.952982044313103,0.8966811913996935,1678123117.452563,5.561730456542969,-3.6343981201171873,10.0748005859375,-0.009986854087797143,0.0031957933080950856,0.014381069886427886,1678123080.643785
57.52370798861375,8.952982044313103,0.8966811913996935,1678123117.5523827,5.1523219726562495,-2.8012159423828122,9.94072529296875,-0.02024002428460221,0.029960562263391426,-0.0003994741635118857,1678123080.6516304
57.52370798861375,8.952982044313103,0.8966811913996935,1678123117.6524413,3.7134067749023436,-1.936909143066406,9.770736975097655,0.015446334322459582,0.04127899689622819,-0.05273058958356891,1678123080.6617556
57.52370798861375,8.952982044313103,0.8966811913996935,1678123117.7522836,2.6815058593749996,-1.905784521484375,9.782707983398437,0.0055926382891664,0.05392901207410457,-0.00905474770626941,1678123080.6717284
58.93286654865369,9.280258654151112,0.87575080152601,1678123117.8710148,1.3718775512695311,-0.25139117431640623,10.625466967773438,0.0167779148674992,0.06378270810739775,0.021038972611625982,1678123080.6816652
58.93286654865369,9.280258654151112,0.87575080152601,1678123117.9531682,1.5897499023437498,0.7541735229492187,8.149862451171874,0.028096349500335963,0.0727042977591632,-0.01265001517787638,1678123080.6917715
58.93286654865369,9.280258654151112,0.87575080152601,1678123118.0524251,1.005564697265625,-2.858676782226562,11.235988391113281,0.00625842856168621,0.08588694515505543,0.036618464988589526,1678123080.7017484
58.93286654865369,9.280258654151112,0.87575080152601,1678123118.1521814,-0.9888052856445312,0.4740519287109375,8.719682446289061,-0.013315805450396189,0.06404902421640568,0.049667954329977795,1678123080.711708
58.93286654865369,9.280258654151112,0.87575080152601,1678123118.2522864,-1.0869675537109373,-0.040701428222656245,8.47786807861328,0.038615835806148954,0.07696535550328999,0.042743735495771776,1678123080.7217882
58.93286654865369,9.280258654151112,0.87575080152601,1678123118.3541672,-3.35188232421875,-0.9935936889648437,10.259154113769531,0.0006657902725198095,0.05233111542005703,0.011584750741844684,1678123080.7316961
58.93286654865369,9.280258654151112,0.87575080152601,1678123118.4525917,-4.651933825683593,0.4860229370117187,9.291896643066405,0.011052118523828838,0.03555320055255783,0.04314320965928366,1678123080.7435257
58.93286654865369,9.280258654151112,0.87575080152601,1678123118.5522225,-4.4819455078125,1.3335703247070312,8.027758166503906,0.0038615835806148956,-0.004527373853134705,0.05605954094616797,1678123080.7517595
58.93286654865369,9.280258654151112,0.87575080152601,1678123118.6520007,-6.387730029296875,2.090138049316406,10.026916552734374,-0.012117382959860534,-0.04926848016646591,-0.007723167161229791,1678123080.7618175
58.93286654865369,9.280258654151112,0.87575080152601,1678123118.7524126,-3.873818286132812,1.7764976318359373,9.758765966796874,-0.0021305288720633903,-0.09201221566223768,-0.022237395102161637,1678123080.7718034
60.30022143415408,9.676588315051049,0.8544138837605715,1678123118.8696089,-2.8131869506835936,0.9720458740234375,8.32463917236328,0.009853696033293181,-0.10945592080225669,0.042743735495771776,1678123080.7816708
60.30022143415408,9.676588315051049,0.8544138837605715,1678123118.9522374,-0.49320554199218747,0.679953271484375,8.80347950439453,-0.038482677751644996,-0.12303804236166081,-0.04767058351241837,1678123080.7917318
60.30022143415408,9.676588315051049,0.8544138837605715,1678123119.0522583,3.4955344238281247,0.6631938598632812,9.267954626464844,-0.007190534943213943,-0.12809804843281136,-0.015446334322459582,1678123080.801846
60.30022143415408,9.676588315051049,0.8544138837605715,1678123119.1522892,4.027047192382812,0.38786066894531246,9.6151138671875,-0.01478054404993977,-0.09281116398926144,-0.005326322180158476,1678123080.811724
60.30022143415408,9.676588315051049,0.8544138837605715,1678123119.252509,7.247248425292969,0.8954314208984374,10.299855541992187,-0.00692421883420602,-0.06950850445106813,-0.06751113363350868,1678123080.8217812
60.30022143415408,9.676588315051049,0.8544138837605715,1678123119.3539522,8.56166513671875,0.5817910034179687,10.268730920410155,-0.0027963191445832,-0.01890844373956259,-0.06671218530648491,1678123080.8317266
60.30022143415408,9.676588315051049,0.8544138837605715,1678123119.4522095,8.384494213867187,-0.21068974609375,9.935936889648437,-0.008788431597261486,0.03621899082507764,0.046738477130890625,1678123080.8453715
60.30022143415408,9.676588315051049,0.8544138837605715,1678123119.552602,7.5345526245117185,0.48123453369140623,10.364498986816406,-0.03222424918995878,0.07243798165015528,-0.06404902421640568,1678123080.8517458
60.30022143415408,9.676588315051049,0.8544138837605715,1678123119.6525497,3.9935283691406247,0.40940848388671874,11.142614526367186,-0.0006657902725198095,0.11331750438287158,-0.04993427043898572,1678123080.8618207
60.30022143415408,9.676588315051049,0.8544138837605715,1678123119.7521586,3.2728736694335936,-0.7302315063476562,9.519345800781249,-0.04633900296737874,0.1272991001057876,-0.021971078993153714,1678123080.8717852
61.71239287336357,9.897848526015878,0.7998968353495002,1678123119.8674622,-0.39983167724609375,1.0079588989257813,11.281478222656249,-0.006524744670694133,0.15073491769848488,-0.0195742340120824,1678123080.8816845
61.71239287336357,9.897848526015878,0.7998968353495002,1678123119.9523585,-1.7812860351562498,-2.3247698120117186,9.983820922851562,-0.014114753777419962,0.13715279613908077,-0.02037318233910617,1678123080.8917744
61.71239287336357,9.897848526015878,0.7998968353495002,1678123120.0524116,-3.564966271972656,0.45489831542968745,10.716446630859375,-0.03621899082507764,0.11624698158195874,0.01251685712337242,1678123080.9015803
61.71239287336357,9.897848526015878,0.7998968353495002,1678123120.15222,-2.224213342285156,-0.1292868896484375,9.370905297851563,-0.02583266257376861,0.08961537068116636,0.01611212459497939,1678123080.9117506
61.71239287336357,9.897848526015878,0.7998968353495002,1678123120.2520957,-3.801992236328125,0.05027823486328125,9.758765966796874,-0.03701793915210141,0.057790595654719466,0.046738477130890625,1678123080.9218035
61.71239287336357,9.897848526015878,0.7998968353495002,1678123120.3548012,-1.8243816650390623,-0.6512228515624999,8.36294639892578,-0.042077945223251964,0.04567321269485893,0.03448793611652613,1678123080.9317486
61.71239287336357,9.897848526015878,0.7998968353495002,1678123120.4533937,-1.678335363769531,0.1867477294921875,6.979097839355468,-0.022903185374681445,0.026631610900792378,0.019174759848570515,1678123080.9430416
61.71239287336357,9.897848526015878,0.7998968353495002,1678123120.5522187,-2.5905261962890624,-2.422932080078125,9.9215716796875,-0.022104237047657675,0.016245282649483352,0.008655273542757524,1678123080.951702
61.71239287336357,9.897848526015878,0.7998968353495002,1678123120.6522024,-1.2042834350585936,-2.5641899780273434,8.79150849609375,-0.03302319751698255,-0.0002663161090079238,0.017976337358034857,1678123080.961825
61.71239287336357,9.897848526015878,0.7998968353495002,1678123120.7524214,-0.8116343627929687,-2.43250888671875,7.874529260253905,0.010785802414820914,-0.017976337358034857,0.04380899993180347,1678123080.971725
63.12531581928488,9.523667948320508,0.7331918431445956,1678123120.8674502,-1.4101847778320311,-3.246537451171875,8.616731774902343,0.02090581455712202,-0.024501082028728992,-0.022770027320177483,1678123080.9817033
63.12531581928488,9.523667948320508,0.7331918431445956,1678123120.952288,1.2018892333984375,-3.9983167724609374,9.105148913574219,0.056991647327695696,-0.03542004249805387,0.005459480234662438,1678123080.9918087
63.12531581928488,9.523667948320508,0.7331918431445956,1678123121.052175,-0.6871358764648438,-1.4437036010742186,7.541735229492187,0.052064799311049105,-0.031025826699423126,0.005992112452678286,1678123081.0016987
63.12531581928488,9.523667948320508,0.7331918431445956,1678123121.152438,-0.6871358764648438,-1.0031704956054688,8.499415893554687,0.0709732430506117,-0.03475425222553406,-0.03648530693408556,1678123081.011768
63.12531581928488,9.523667948320508,0.7331918431445956,1678123121.2524683,1.2569558715820313,0.6105214233398437,8.80347950439453,0.061385863126326434,-0.03555320055255783,-0.046738477130890625,1678123081.0217175
63.12531581928488,9.523667948320508,0.7331918431445956,1678123121.3539808,-0.09337386474609374,0.18435352783203124,7.524975817871093,0.08335694211948017,-0.032357407244462746,0.0604537567447987,1678123081.0317457
63.12531581928488,9.523667948320508,0.7331918431445956,1678123121.45217,0.38307226562499996,0.39743747558593745,9.17458076171875,0.06191849534434229,-0.033156355571486516,-0.0391484680241648,1678123081.0435655
63.12531581928488,9.523667948320508,0.7331918431445956,1678123121.5525532,0.612915625,0.16280571289062498,9.203311181640624,0.08215851962894449,-0.03701793915210141,-0.058589543981743236,1678123081.051714
63.12531581928488,9.523667948320508,0.7331918431445956,1678123121.6524236,-0.11013327636718749,0.70868369140625,9.121908325195312,0.05299690569257683,-0.024767398137736915,-0.027430559227816155,1678123081.0619118
63.12531581928488,9.523667948320508,0.7331918431445956,1678123121.753288,1.438915197753906,1.3670891479492187,9.567229833984374,0.0541953281831125,-0.0268979270098003,0.014247911831923924,1678123081.07182
64.28619532100856,8.548649773932993,0.6716748401522636,1678123121.8721623,0.009576806640625,1.1156979736328125,10.47702646484375,0.03195793308095086,-0.014514227940931847,-0.010918960469324876,1678123081.0817943
64.28619532100856,8.548649773932993,0.6716748401522636,1678123121.9523523,-1.0965443603515623,1.7573440185546874,9.720458740234374,0.020106866230098247,-0.028229507554839925,0.03142530086293501,1678123081.091842
64.28619532100856,8.548649773932993,0.6716748401522636,1678123122.0526118,0.181959326171875,1.5011644409179687,10.029310754394531,-0.0006657902725198095,-0.031158984753927088,-0.035819516661565756,1678123081.1017072
64.28619532100856,8.548649773932993,0.6716748401522636,1678123122.1522133,-0.15562310791015624,0.948103857421875,9.816226806640625,0.017710021249026934,-0.03821636164263707,0.003728425526110933,1678123081.1118062
64.28619532100856,8.548649773932993,0.6716748401522636,1678123122.2520843,1.1061211669921875,0.055066638183593745,10.24718310546875,-0.022636869265673522,-0.05566006678265608,0.0006657902725198095,1678123081.1218483
64.28619532100856,8.548649773932993,0.6716748401522636,1678123122.354303,-0.41898529052734373,-0.5410895751953124,10.40041201171875,0.013182647395892227,-0.04833637378493817,0.004793689962142629,1678123081.1317835
64.28619532100856,8.548649773932993,0.6716748401522636,1678123122.4525952,2.5043349365234375,-1.4867992309570313,10.153809240722655,0.0195742340120824,-0.04993427043898572,-0.028362665609343887,1678123081.1450372
64.28619532100856,8.548649773932993,0.6716748401522636,1678123122.5523455,2.6288334228515624,-0.46686932373046874,10.134655627441406,-0.0042610577441267805,-0.02037318233910617,-0.02423476591972107,1678123081.1517782
64.28619532100856,8.548649773932993,0.6716748401522636,1678123122.652397,4.168305090332031,0.6775590698242188,9.02135185546875,0.026365294791784455,-0.02250371121116956,-0.06844324001503642,1678123081.1619313
64.28619532100856,8.548649773932993,0.6716748401522636,1678123122.7530642,4.3239281982421875,1.5251064575195312,8.863334545898438,0.017976337358034857,0.0055926382891664,-0.03568635860706179,1678123081.171796
64.89455721073318,7.158037939108908,0.6125045930966735,1678123122.8744524,2.806004345703125,1.5897499023437498,9.294290844726563,-0.008788431597261486,0.023835291756209184,-0.029827404208887465,1678123081.1817412
64.89455721073318,7.158037939108908,0.6125045930966735,1678123122.9525864,3.3159692993164063,1.7836802368164062,6.481103894042969,0.015712650431467506,0.05006742849348968,-0.017976337358034857,1678123081.19181
64.89455721073318,7.158037939108908,0.6125045930966735,1678123123.0521977,-0.3687070556640625,-1.0797849487304687,10.407594616699217,-0.01251685712337242,0.05952165036327097,-0.006524744670694133,1678123081.201728
64.89455721073318,7.158037939108908,0.6125045930966735,1678123123.152361,-0.040701428222656245,1.8435352783203125,9.481038574218749,-0.04314320965928366,0.0464721610218827,0.004394215798630743,1678123081.211794
64.89455721073318,7.158037939108908,0.6125045930966735,1678123123.2524397,-2.5354595581054684,2.4947581298828125,8.796296899414061,-0.021438446775137867,0.032357407244462746,0.014514227940931847,1678123081.2218409
64.89455721073318,7.158037939108908,0.6125045930966735,1678123123.3544357,-1.8650830932617186,-0.16519991455078123,10.960655200195312,-0.05885586009075116,0.009986854087797143,0.03968110024218065,1678123081.23176
64.89455721073318,7.158037939108908,0.6125045930966735,1678123123.4521816,-2.032677209472656,-1.5801730957031248,11.508927380371093,-0.03888215191515688,0.0001331580545039619,0.0251668723012488,1678123081.2429297
64.89455721073318,7.158037939108908,0.6125045930966735,1678123123.5522025,0.46686932373046874,-0.16759411621093748,9.107543115234375,-0.038615835806148954,-0.014514227940931847,0.0002663161090079238,1678123081.2519095
64.89455721073318,7.158037939108908,0.6125045930966735,1678123123.6525025,0.3591302490234375,-1.3024457031249999,9.579200842285156,-0.05020058654799364,-0.019307917903074477,0.02330265953819333,1678123081.2618916
64.89455721073318,7.158037939108908,0.6125045930966735,1678123123.7523143,1.8531120849609375,0.7302315063476562,8.544905725097657,-0.04660531907638666,-0.013981595722916,0.05086637682051345,1678123081.2718139
65.33628030313412,5.769249563571066,0.6063342848792672,1678123123.8683999,0.8714894042968749,-2.0374656127929685,7.359775903320312,-0.004660531907638666,0.0006657902725198095,0.0793622004843613,1678123081.2817545
65.33628030313412,5.769249563571066,0.6063342848792672,1678123123.952267,-0.20350714111328125,-1.6328455322265625,10.115502014160155,-0.02862898171835181,-0.0006657902725198095,-0.06657902725198095,1678123081.2918284
65.33628030313412,5.769249563571066,0.6063342848792672,1678123124.052498,0.143652099609375,-1.0702081420898437,9.311050256347656,0.01265001517787638,0.0,-0.01611212459497939,1678123081.3017817
65.33628030313412,5.769249563571066,0.6063342848792672,1678123124.152607,-1.9680337646484374,-0.41898529052734373,9.785102185058593,-0.023036343429185407,-0.01344896350490015,-0.0003994741635118857,1678123081.3117995
65.33628030313412,5.769249563571066,0.6063342848792672,1678123124.2522674,-2.47081611328125,1.47482822265625,10.903194360351561,-0.011584750741844684,-0.03701793915210141,-0.01597896654047543,1678123081.3218322
65.33628030313412,5.769249563571066,0.6063342848792672,1678123124.3540874,-1.1228805786132812,-0.6057330200195312,10.68053360595703,0.0001331580545039619,-0.04567321269485893,-0.0055926382891664,1678123081.331783
65.33628030313412,5.769249563571066,0.6063342848792672,1678123124.4533026,-0.469263525390625,-1.6256629272460936,11.891999645996092,-0.0005326322180158476,-0.06444849837991756,0.0430100516047797,1678123081.3429554
65.33628030313412,5.769249563571066,0.6063342848792672,1678123124.552473,3.189076611328125,-1.0510545288085937,11.918335864257811,-0.01611212459497939,-0.058190069818231355,-0.04340952576829158,1678123081.3517828
65.33628030313412,5.769249563571066,0.6063342848792672,1678123124.6521912,4.781220715332031,-0.5147533569335937,11.317391247558593,0.013315805450396189,-0.0335558297349984,0.021038972611625982,1678123081.361817
65.33628030313412,5.769249563571066,0.6063342848792672,1678123124.7522304,7.6231380859375,-2.3582886352539063,10.311826550292968,-0.007856325215733753,0.004394215798630743,0.02583266257376861,1678123081.3716953
65.82329588296125,4.426767832133919,0.5805052863433957,1678123124.868444,9.088389501953124,0.32082302246093747,9.583989245605467,0.03222424918995878,0.05233111542005703,-0.028096349500335963,1678123081.381757
65.82329588296125,4.426767832133919,0.5805052863433957,1678123124.9523604,7.75721337890625,-2.9927520751953125,8.204929089355469,0.04127899689622819,0.10892328858424084,0.014247911831923924,1678123081.3918588
65.82329588296125,4.426767832133919,0.5805052863433957,1678123125.0521514,6.430825659179687,-0.51714755859375,8.844180932617187,-0.002663161090079238,0.1482049146629096,0.04993427043898572,1678123081.401735
65.82329588296125,4.426767832133919,0.5805052863433957,1678123125.1522038,1.9201497314453124,-0.21787235107421873,8.130708837890625,0.015046860158947694,0.16178703622231372,-0.013582121559404116,1678123081.4118123
65.82329588296125,4.426767832133919,0.5805052863433957,1678123125.252517,-2.3822306518554686,-2.0781670410156248,10.510545288085936,0.027563717282320117,0.1671133584024722,0.04713795129440252,1678123081.421763
65.82329588296125,4.426767832133919,0.5805052863433957,1678123125.3542154,-4.912901806640625,0.17477672119140625,10.220846887207031,0.005992112452678286,0.1380849025206085,0.06804376585152452,1678123081.43177
65.82329588296125,4.426767832133919,0.5805052863433957,1678123125.4521782,-5.645527514648437,2.4756045166015626,7.68059892578125,0.01344896350490015,0.09108010928070993,0.01265001517787638,1678123081.443194
65.82329588296125,4.426767832133919,0.5805052863433957,1678123125.5523653,-7.958326318359375,-0.13407529296874998,9.859322436523437,-0.010918960469324876,0.037550571370117254,0.015046860158947694,1678123081.451746
65.82329588296125,4.426767832133919,0.5805052863433957,1678123125.6525345,-5.6574985229492185,0.5267243652343749,9.842563024902343,-0.0346210941710301,-0.011717908796348646,0.05259743152906495,1678123081.4618435
65.82329588296125,4.426767832133919,0.5805052863433957,1678123125.7527082,-3.8139632446289062,-0.9217676391601562,9.279925634765624,0.012383699068868458,-0.03981425829668461,0.08655273542757524,1678123081.4717717
66.21657562634209,3.0626774658448994,0.5516794072464108,1678123125.8677778,-2.750937707519531,-1.944091748046875,9.715670336914062,0.003728425526110933,-0.07563377495825035,-0.01744370514001901,1678123081.4817653
66.21657562634209,3.0626774658448994,0.5516794072464108,1678123125.9519567,2.8754361938476563,-2.710236279296875,8.37012900390625,0.042743735495771776,-0.0692421883420602,-0.009587379924285258,1678123081.4918401
66.21657562634209,3.0626774658448994,0.5516794072464108,1678123126.0530446,3.337517114257812,-0.40222587890625,7.410054138183593,0.03022687837239935,-0.06072007285380662,0.019041601794066554,1678123081.5017474
66.21657562634209,3.0626774658448994,0.5516794072464108,1678123126.1524007,3.873818286132812,0.3136404174804687,7.747636572265624,0.020639498448114094,-0.04234426133225989,0.0073236929977179045,1678123081.511824
66.21657562634209,3.0626774658448994,0.5516794072464108,1678123126.2527983,5.844246252441406,0.28969840087890625,8.774749084472656,0.021837920938649752,0.0055926382891664,0.0318247750264469,1678123081.5218177
66.21657562634209,3.0626774658448994,0.5516794072464108,1678123126.3536465,2.461239306640625,-1.2497732666015624,8.015787158203125,0.042077945223251964,0.03368898778950236,0.05832322787273531,1678123081.5318198
66.21657562634209,3.0626774658448994,0.5516794072464108,1678123126.4522195,0.239420166015625,0.29927520751953124,10.168174450683592,0.03701793915210141,0.03542004249805387,-0.05645901510967985,1678123081.5436227
66.21657562634209,3.0626774658448994,0.5516794072464108,1678123126.5523164,-1.8531120849609375,0.9433154541015625,8.839392529296875,0.0709732430506117,0.03275688140797463,-0.021038972611625982,1678123081.5517733
66.21657562634209,3.0626774658448994,0.5516794072464108,1678123126.6522665,-3.4811692138671875,1.4915876342773438,8.59278975830078,0.021305288720633905,0.02356897564720126,-0.001731054708551505,1678123081.5618043
66.21657562634209,3.0626774658448994,0.5516794072464108,1678123126.7526608,-5.085284326171875,2.463633508300781,8.975862023925782,0.030493194481407273,-0.0167779148674992,0.007190534943213943,1678123081.5719137
66.6401568534784,1.706118487752974,0.5317496201023459,1678123126.8686204,-3.296815686035156,0.5291185668945312,9.720458740234374,0.029960562263391426,-0.049002164057457984,-0.008255799379245638,1678123081.5817652
66.6401568534784,1.706118487752974,0.5317496201023459,1678123126.952653,-3.1579519897460937,0.4572925170898437,10.527304699707031,0.02250371121116956,-0.06564692087045322,0.004127899689622819,1678123081.5918498
66.6401568534784,1.706118487752974,0.5317496201023459,1678123127.0526571,-0.7852981445312499,-1.2378022583007813,9.835380419921874,0.011851066850852611,-0.08535431293703959,-0.09281116398926144,1678123081.6017802
66.6401568534784,1.706118487752974,0.5317496201023459,1678123127.152232,1.924938134765625,-0.24181436767578124,10.213664282226562,0.0251668723012488,-0.08735168375459901,0.004793689962142629,1678123081.6118045
66.6401568534784,1.706118487752974,0.5317496201023459,1678123127.2522185,4.656722229003906,-1.0366893188476562,9.425971936035156,-0.025433188410256723,-0.07896272632084941,0.03488741028003802,1678123081.6218486
66.6401568534784,1.706118487752974,0.5317496201023459,1678123127.3542883,3.778050219726562,1.6543933471679686,9.81862100830078,0.018642127630554665,-0.06844324001503642,-0.01744370514001901,1678123081.631825
66.6401568534784,1.706118487752974,0.5317496201023459,1678123127.4527295,4.862623571777344,-0.6631938598632812,10.496180078124999,0.020106866230098247,-0.02942793004537558,-0.035020568334541986,1678123081.643176
66.6401568534784,1.706118487752974,0.5317496201023459,1678123127.5522714,4.721365673828124,-1.43652099609375,9.334992272949219,-0.01038632825130903,-0.0005326322180158476,0.027031085064304263,1678123081.651749
66.6401568534784,1.706118487752974,0.5317496201023459,1678123127.6521864,3.81156904296875,-0.603338818359375,8.978256225585938,0.003994741635118857,0.03488741028003802,-0.0073236929977179045,1678123081.6618586
66.6401568534784,1.706118487752974,0.5317496201023459,1678123127.7536523,1.5753846923828123,-1.8459294799804686,9.332598071289063,0.014514227940931847,0.03715109720660537,0.040080574405692536,1678123081.6718369
66.90828837209847,0.2768890089355409,0.48203439824283123,1678123127.8721993,-0.19871873779296872,-0.86191259765625,10.601524951171875,0.02356897564720126,0.03555320055255783,-0.004793689962142629,1678123081.6817899
66.90828837209847,0.2768890089355409,0.48203439824283123,1678123127.9522052,0.4261678955078125,0.8571241943359375,7.618349682617187,0.04487426436783516,0.04154531300523612,-0.01944107595757844,1678123081.6918314
66.90828837209847,0.2768890089355409,0.48203439824283123,1678123128.052346,-0.1149216796875,-1.9105729248046874,11.094730493164063,0.01744370514001901,0.03222424918995878,0.01611212459497939,1678123081.7017782
66.90828837209847,0.2768890089355409,0.48203439824283123,1678123128.152292,1.1085153686523437,1.3287819213867187,8.453926062011718,-0.005193164125654515,0.030093720317895388,0.02077265650261806,1678123081.711828
66.90828837209847,0.2768890089355409,0.48203439824283123,1678123128.2522895,1.2473790649414063,0.16998831787109375,7.541735229492187,0.018775285685058627,0.0268979270098003,0.01038632825130903,1678123081.7217474
66.90828837209847,0.2768890089355409,0.48203439824283123,1678123128.353925,0.4955997436523437,0.13407529296874998,9.746794958496093,-0.0005326322180158476,0.0268979270098003,0.020106866230098247,1678123081.7318077
66.90828837209847,0.2768890089355409,0.48203439824283123,1678123128.4524271,2.2553379638671873,0.7709329345703124,10.369287390136718,0.02157160482964183,0.03821636164263707,0.020639498448114094,1678123081.7457876
66.90828837209847,0.2768890089355409,0.48203439824283123,1678123128.5523324,1.1659762084960936,0.7278373046875,9.469067565917967,0.008921589651765448,0.04127899689622819,-0.0009321063815277333,1678123081.7518182
66.90828837209847,0.2768890089355409,0.48203439824283123,1678123128.6525648,1.0223241088867188,0.11252747802734374,9.715670336914062,-0.016644756812995237,0.04687163518539458,-0.0073236929977179045,1678123081.7619443
66.90828837209847,0.2768890089355409,0.48203439824283123,1678123128.7526178,0.7613561279296874,2.6599580444335937,9.368511096191405,-0.023968449810713145,0.04034689051470046,0.015845808485971467,1678123081.7718031
66.46336798329139,-1.0866683386266232,0.4823884442448616,1678123128.8682194,-0.5386953735351562,1.9488801513671874,8.422801440429687,-0.004660531907638666,0.05446164429212042,0.05832322787273531,1678123081.7818134
66.46336798329139,-1.0866683386266232,0.4823884442448616,1678123128.9524536,-2.655169641113281,0.031124621582031248,9.442731347656249,-0.04380899993180347,0.06005428258128682,-0.015313176267955617,1678123081.7918632
66.46336798329139,-1.0866683386266232,0.4823884442448616,1678123129.0524056,-1.467645617675781,1.24498486328125,9.176974963378905,-0.02090581455712202,0.04580637074936289,0.04221110327775593,1678123081.8017883
66.46336798329139,-1.0866683386266232,0.4823884442448616,1678123129.1522532,-3.8666356811523435,-0.16519991455078123,9.787496386718749,-0.05486111845563231,0.024634240083232953,0.047404267403410444,1678123081.8118305
66.46336798329139,-1.0866683386266232,0.4823884442448616,1678123129.2522073,-5.951985327148437,0.7757213378906249,9.890447058105469,-0.03382214584400632,-0.02436792397422503,0.0033289513625990473,1678123081.8218486
66.46336798329139,-1.0866683386266232,0.4823884442448616,1678123129.354324,-3.995922570800781,-0.679953271484375,10.551246716308594,-0.031158984753927088,-0.056592173164183815,-0.003728425526110933,1678123081.831801
,,,,-3.210624426269531,-1.848323681640625,9.619902270507811,-0.03422162000751821,-0.07976167464787318,0.10732539193019329,1678123081.8433812
,,,,-1.7214309936523438,-3.689464758300781,10.024522351074218,-0.03901530996966084,-0.11398329465539139,0.01251685712337242,1678123081.8517888
,,,,1.0606313354492187,-2.8131869506835936,9.866505041503906,0.019041601794066554,-0.12503541317922023,-0.015046860158947694,1678123081.8619316
,,,,3.0358477050781247,-2.5234885498046875,9.591171850585937,0.002530003035575276,-0.10639328554866556,-0.015313176267955617,1678123081.8717246
,,,,7.4028715332031245,-0.5722141967773438,8.726865051269531,0.04993427043898572,-0.07709851355779394,-0.016378440703987314,1678123081.881821
,,,,8.9255837890625,-2.6408044311523438,9.313444458007812,0.036618464988589526,-0.030759510590415203,-0.004793689962142629,1678123081.891864
,,,,9.050082275390624,-1.189918225097656,8.180987072753906,0.01611212459497939,0.03209109113545482,0.04940163822096987,1678123081.9018188
,,,,8.429984045410155,-0.5458779785156249,8.738836059570312,0.045273738531347044,0.07843009410283357,0.008122641324741676,1678123081.9118402
,,,,5.087678527832031,-2.4516625,9.552864624023437,0.05685848927319174,0.11225223994683989,0.02356897564720126,1678123081.9218423
,,,,2.4756045166015626,-1.3168109130859373,11.61906065673828,0.036618464988589526,0.15632755598765127,-0.010918960469324876,1678123081.931831
,,,,-0.21308394775390624,1.1468225952148436,9.469067565917967,0.07030745277809189,0.15006912742596507,0.0018642127630554665,1678123081.9433377
,,,,-5.1140147460937495,-1.66636435546875,12.883199133300781,0.0391484680241648,0.12503541317922023,-0.005992112452678286,1678123081.9518223
,,,,-5.145139367675781,1.9847931762695312,9.931148486328125,0.008255799379245638,0.08748484180910297,0.01251685712337242,1678123081.9619284
,,,,-5.801150622558594,0.4740519287109375,9.399635717773437,0.05432848623761646,0.05193164125654514,0.040879522732716306,1678123081.9718199
,,,,-6.098031628417968,-0.7062894897460937,9.5001921875,0.017177389031011087,0.011584750741844684,0.009187905760773371,1678123081.9818258
,,,,-4.103661645507812,-1.6065093139648436,9.9981861328125,0.03382214584400632,-0.031558458917438977,-0.008655273542757524,1678123081.9918952
,,,,-3.347093920898437,-0.47884033203125,9.287108239746093,0.038615835806148954,-0.055793224837160045,0.02170476288414579,1678123082.0017853
,,,,-0.011971008300781249,-1.7645266235351562,9.323021264648437,0.025699504519264647,-0.07416903635870678,0.0033289513625990473,1678123082.0118334
,,,,3.5984850952148437,-0.565031591796875,9.423577734375,0.03608583277057368,-0.07230482359565131,-0.007723167161229791,1678123082.0217974
,,,,6.210559106445312,-2.4444798950195312,8.240842114257813,0.05020058654799364,-0.03874899386065292,0.09906959255094766,1678123082.0318484
,,,,5.88015927734375,-1.649604943847656,9.624690673828125,0.04048004856920442,0.0011984224905356572,0.01944107595757844,1678123082.0433972
,,,,7.254431030273437,-2.3678654418945313,8.032546569824218,0.10000169893247539,0.03289003946247859,-0.013315805450396189,1678123082.051825
,,,,3.5673604736328124,-1.5586252807617187,7.900865478515625,0.06751113363350868,0.07177219137763546,-0.005858954398174323,1678123082.0619862
,,,,1.5418658691406248,2.3151930053710936,8.99501563720703,0.08042746492039299,0.09081379317170202,0.03648530693408556,1678123082.071835
,,,,-1.407790576171875,-0.5339069702148437,8.518569506835936,0.08335694211948017,0.08628641931856731,0.04687163518539458,1678123082.0818188
,,,,-5.717353564453124,-0.38786066894531246,9.60793126220703,0.05925533425426305,0.0604537567447987,0.04247741938676385,1678123082.0918756
,,,,-6.263231542968749,0.1484405029296875,8.722076647949219,0.07896272632084941,0.02077265650261806,-0.0318247750264469,1678123082.1018255
,,,,-5.815515832519531,0.9504980590820312,9.91438907470703,0.09241168982574956,-0.02583266257376861,-0.03901530996966084,1678123082.1118524
,,,,-4.747701892089843,1.5011644409179687,9.267954626464844,0.05193164125654514,-0.0744353524677147,-0.015313176267955617,1678123082.1218352
,,,,-0.4070142822265625,1.9297265380859374,9.765948571777344,0.0755006169037464,-0.10306433418606652,0.017976337358034857,1678123082.1318657
,,,,1.3024457031249999,-0.7757213378906249,11.415553515625,0.049801112384481754,-0.10013485698697935,0.00346210941710301,1678123082.1435916
,,,,4.874594580078124,1.8459294799804686,7.850587243652344,0.04620584491287478,-0.0800279907568811,-0.028495823663847848,1678123082.1518257
,,,,6.1626750732421876,2.0183119995117185,9.734823950195311,0.06311691783487795,-0.048869006002954025,-0.040879522732716306,1678123082.1618752
,,,,5.781997009277344,2.6791116577148437,9.057264880371093,0.03834951969714103,-0.018775285685058627,-0.02862898171835181,1678123082.171884
,,,,5.341463903808593,0.7948749511718749,10.005368737792969,0.031025826699423126,0.02609897868277653,-0.02090581455712202,1678123082.1818306
,,,,2.9951462768554684,1.3479355346679687,6.945579016113281,0.009454221869781294,0.06298375978037399,0.06285060172587002,1678123082.1918814
,,,,0.22266075439453123,-0.3687070556640625,10.089165795898436,-0.0005326322180158476,0.0737695621951949,0.05486111845563231,1678123082.2018316
,,,,-1.3479355346679687,1.16837041015625,9.986215124511718,-0.0021305288720633903,0.07190534943213943,-0.009187905760773371,1678123082.2118642
,,,,-5.427655163574219,2.0829554443359375,9.150638745117186,0.009187905760773371,0.03142530086293501,0.022636869265673522,1678123082.2219198
,,,,-6.744466076660156,2.389413256835937,10.060435375976562,-0.02956108809987954,-0.0021305288720633903,0.030892668644919165,1678123082.2318544
,,,,-3.3782185424804685,2.73896669921875,8.508992700195313,-0.01810949541253882,-0.043542683822795546,0.06937534639656416,1678123082.2443004
,,,,-3.7421371948242186,2.1715409057617188,9.564835632324218,-0.05512743456464023,-0.0709732430506117,0.031158984753927088,1678123082.2518332
,,,,-1.3934253662109375,2.5905261962890624,10.40041201171875,-0.04327636771378762,-0.0860201032095594,0.006125270507182248,1678123082.2619047
,,,,1.5418658691406248,2.3918074584960936,7.948749511718749,-0.03874899386065292,-0.10080064725949917,-0.008921589651765448,1678123082.271892
,,,,3.1100679565429687,1.7836802368164062,7.884106066894531,-0.07190534943213943,-0.08135957130192072,0.06298375978037399,1678123082.2818084
,,,,4.740519287109374,0.5051765502929687,9.572018237304688,-0.08349010017398412,-0.05845638592723928,0.0009321063815277333,1678123082.2919006
,,,,5.748478186035156,-0.16041151123046873,9.090783703613281,-0.06111954701731851,-0.02157160482964183,0.021438446775137867,1678123082.3020384
,,,,4.951209033203125,0.277727392578125,11.437101330566406,-0.09387642842529313,-0.001331580545039619,0.0005326322180158476,1678123082.3118467
,,,,3.1747114013671873,0.9888052856445312,9.457096557617186,-0.0625842856168621,0.02609897868277653,0.0014647385995435807,1678123082.3218982
,,,,2.4396914916992185,-0.689530078125,11.623849060058593,-0.0709732430506117,0.04633900296737874,0.04034689051470046,1678123082.3318202
,,,,1.024718310546875,1.13006318359375,8.767566479492187,-0.10199906975003482,0.049002164057457984,0.02077265650261806,1678123082.344611
,,,,-0.70868369140625,0.22505495605468748,10.084377392578125,-0.056592173164183815,0.05352953791059268,0.0066579027251980945,1678123082.3520105
,,,,-1.4173673828125,-1.4772224243164063,9.512163195800781,-0.07044061083259585,0.03382214584400632,0.0475374254579144,1678123082.361933
,,,,-1.455674609375,-0.28730419921875,10.40041201171875,-0.06591323697946114,0.031158984753927088,0.013715279613908078,1678123082.371996
,,,,-0.8451531860351562,0.5578489868164063,7.426813549804687,-0.07603324912176225,0.01691107292200316,-0.01478054404993977,1678123082.3818278
,,,,-1.2282254516601563,0.5698199951171875,10.108319409179687,-0.09001484484467824,0.00625842856168621,0.04141215495073215,1678123082.391853
