x,y,z,GPS_t,linear_acc_x,linear_acc_y,linear_acc_z,angular_vel_x,angular_vel_y,angular_vel_z,IMU_t
0.0,0.0,0.0,1678122726.2533827,0.17238251953125,2.5234885498046875,9.363722692871093,0.058989018145255125,0.018375811521546742,0.04061320662370838,1678122726.247934
0.0,0.0,0.0,1678122726.355769,1.388636962890625,-2.001552587890625,10.137049829101562,-0.004660531907638666,0.023968449810713145,-0.03036003642690331,1678122726.258051
0.0,0.0,0.0,1678122726.4538603,-0.32561142578124996,2.1499930908203124,9.196128576660156,-0.01038632825130903,-0.0010652644360316951,0.018508969576050704,1678122726.2678823
0.0,0.0,0.0,1678122726.5532186,0.26815058593749996,3.0980969482421874,10.110713610839843,0.024101607865217107,-0.0015978966540475428,-0.005725796343670361,1678122726.2779777
0.0,0.0,0.0,1678122726.6533813,-1.2138602416992186,-0.8307879760742187,8.813056311035156,0.015046860158947694,0.0006657902725198095,-0.026365294791784455,1678122726.2877402
0.0,0.0,0.0,1678122726.753678,2.3295582153320313,-0.9074024291992187,10.39322940673828,-0.0363521488795816,0.002530003035575276,0.0475374254579144,1678122726.2979434
-0.060163653281051666,0.061834212858229876,0.17428789846599102,1678122726.8714561,0.1484405029296875,1.1827356201171875,8.276755139160155,-0.014114753777419962,0.0038615835806148956,-0.0023968449810713144,1678122726.308037
-0.060163653281051666,0.061834212858229876,0.17428789846599102,1678122726.953515,0.852335791015625,0.016759411621093748,9.885658654785155,0.03475425222553406,0.005858954398174323,-0.042743735495771776,1678122726.317909
-0.060163653281051666,0.061834212858229876,0.17428789846599102,1678122727.0533166,1.0103531005859374,-1.216254443359375,8.01818135986328,-0.012916331286884304,0.004660531907638666,0.021038972611625982,1678122726.328009
-0.060163653281051666,0.061834212858229876,0.17428789846599102,1678122727.1536844,0.4285620971679687,2.27927998046875,10.35492218017578,-0.019041601794066554,0.004127899689622819,-0.03289003946247859,1678122726.341567
-0.060163653281051666,0.061834212858229876,0.17428789846599102,1678122727.2537022,1.177947216796875,2.8898014038085935,8.846575134277343,0.032490565298966705,0.0021305288720633903,-0.019307917903074477,1678122726.3479998
-0.060163653281051666,0.061834212858229876,0.17428789846599102,1678122727.3553774,0.7206546997070312,-1.2401964599609374,8.916006982421875,0.0475374254579144,0.012916331286884304,0.05486111845563231,1678122726.3580801
-0.060163653281051666,0.061834212858229876,0.17428789846599102,1678122727.4534962,0.4477157104492187,0.17238251953125,10.855310327148437,-0.04181162911424404,0.006524744670694133,-0.028362665609343887,1678122726.3679094
-0.060163653281051666,0.061834212858229876,0.17428789846599102,1678122727.553705,-0.14604630126953125,2.2553379638671873,9.686939916992188,0.019973708175594285,0.010785802414820914,-0.00692421883420602,1678122726.3780177
-0.060163653281051666,0.061834212858229876,0.17428789846599102,1678122727.6538002,1.3335703247070312,0.35194764404296874,9.162609753417968,0.03289003946247859,0.01611212459497939,0.009986854087797143,1678122726.3878882
-0.060163653281051666,0.061834212858229876,0.17428789846599102,1678122727.753348,-0.21787235107421873,-1.3168109130859373,9.943119494628906,-0.026498452846288417,0.011851066850852611,-0.022104237047657675,1678122726.3979642
-0.05970146175241098,0.03844583546742797,-0.13795408885926008,1678122727.870266,1.24498486328125,1.8555062866210936,8.793902697753905,-0.02609897868277653,-0.0022636869265673524,0.010652644360316953,1678122726.4079254
-0.05970146175241098,0.03844583546742797,-0.13795408885926008,1678122727.9537413,0.15322890625,1.9201497314453124,9.425971936035156,0.035819516661565756,0.011318434632836761,0.02157160482964183,1678122726.4179106
-0.05970146175241098,0.03844583546742797,-0.13795408885926008,1678122728.053773,0.430956298828125,-1.1635820068359375,8.348581188964843,-0.0011984224905356572,0.005326322180158476,-0.03821636164263707,1678122726.4280038
-0.05970146175241098,0.03844583546742797,-0.13795408885926008,1678122728.1536944,0.5722141967773438,0.6392518432617187,9.567229833984374,-0.008788431597261486,0.0023968449810713144,0.02316950148368937,1678122726.4401934
-0.05970146175241098,0.03844583546742797,-0.13795408885926008,1678122728.2534256,1.1611878051757811,2.099714855957031,9.753977563476562,0.02170476288414579,0.0010652644360316951,-0.022104237047657675,1678122726.4479887
-0.05970146175241098,0.03844583546742797,-0.13795408885926008,1678122728.354752,-0.5793968017578125,0.316034619140625,9.076418493652342,0.03621899082507764,0.007590009106725828,-0.031691616971942935,1678122726.4580288
-0.05970146175241098,0.03844583546742797,-0.13795408885926008,1678122728.4536376,1.0630255371093749,-0.49799394531249996,9.744400756835937,-0.00905474770626941,0.012250541014364496,0.06005428258128682,1678122726.4679513
-0.05970146175241098,0.03844583546742797,-0.13795408885926008,1678122728.554694,0.6727706665039062,0.9313444458007812,9.624690673828125,-0.02090581455712202,0.0029294771990871615,-0.006791060779702058,1678122726.4780905
-0.05970146175241098,0.03844583546742797,-0.13795408885926008,1678122728.6535528,0.22026655273437498,1.197100830078125,10.041281762695311,0.03954794218767669,0.011318434632836761,-0.042743735495771776,1678122726.4879224
-0.05970146175241098,0.03844583546742797,-0.13795408885926008,1678122728.753646,1.35990654296875,-0.430956298828125,8.176198669433592,0.004793689962142629,0.02170476288414579,0.01824265346704278,1678122726.4980009
0.08538753632456064,-0.07524466095492244,-0.20952158328145742,1678122728.8718832,-0.5339069702148437,1.8195932617187498,10.433930834960936,-0.02090581455712202,0.011052118523828838,-0.022104237047657675,1678122726.507914
0.08538753632456064,-0.07524466095492244,-0.20952158328145742,1678122728.954466,0.612915625,3.375824340820312,8.56166513671875,0.004127899689622819,-0.0029294771990871615,-0.015712650431467506,1678122726.51792
0.08538753632456064,-0.07524466095492244,-0.20952158328145742,1678122729.05348,0.4165910888671875,-0.3591302490234375,9.315838659667968,0.04234426133225989,0.017044230976507122,0.045140580476843085,1678122726.528078
0.08538753632456064,-0.07524466095492244,-0.20952158328145742,1678122729.1535118,0.5746083984375,-1.3335703247070312,10.690110412597656,-0.044341632149819316,0.007856325215733753,-0.02530003035575276,1678122726.5397213
0.08538753632456064,-0.07524466095492244,-0.20952158328145742,1678122729.253743,0.15562310791015624,1.4437036010742186,9.624690673828125,0.0066579027251980945,0.0,-0.0029294771990871615,1678122726.5479689
0.08538753632456064,-0.07524466095492244,-0.20952158328145742,1678122729.354974,0.9433154541015625,0.47165772705078124,9.888052856445311,0.04221110327775593,0.011984224905356573,0.010918960469324876,1678122726.5579405
0.08538753632456064,-0.07524466095492244,-0.20952158328145742,1678122729.4534621,-0.09576806640624999,-1.6519991455078125,9.935936889648437,-0.02316950148368937,0.016378440703987314,-0.02077265650261806,1678122726.5679424
0.08538753632456064,-0.07524466095492244,-0.20952158328145742,1678122729.5535457,1.0223241088867188,1.419761584472656,9.160215551757812,-0.03768372942462122,0.003728425526110933,0.02423476591972107,1678122726.5780156
0.08538753632456064,-0.07524466095492244,-0.20952158328145742,1678122729.6538658,-1.0845733520507812,1.8363526733398436,9.14824454345703,0.034088461953014244,0.005992112452678286,0.013315805450396189,1678122726.587952
0.08538753632456064,-0.07524466095492244,-0.20952158328145742,1678122729.753831,0.08379705810546874,-0.7852981445312499,8.664615808105468,0.03302319751698255,0.0005326322180158476,-0.03475425222553406,1678122726.598049
0.08626789203844965,-0.17530668899416924,-0.2433132641017437,1678122729.869331,1.5801730957031248,1.3718775512695311,9.023746057128905,-0.01691107292200316,-0.010785802414820914,0.028362665609343887,1678122726.6079361
0.08626789203844965,-0.17530668899416924,-0.2433132641017437,1678122729.9536846,0.8355763793945312,2.6886884643554687,9.911994873046874,0.021172130666129944,0.0001331580545039619,-0.023702133701705222,1678122726.6179395
0.08626789203844965,-0.17530668899416924,-0.2433132641017437,1678122730.053921,0.679953271484375,-0.6009446166992187,9.469067565917967,0.028229507554839925,-0.0015978966540475428,-0.031025826699423126,1678122726.6279955
0.08626789203844965,-0.17530668899416924,-0.2433132641017437,1678122730.1538792,1.7357962036132812,-1.5442600708007812,9.648632690429688,-0.009986854087797143,0.011851066850852611,0.06551376281594926,1678122726.6380556
0.08626789203844965,-0.17530668899416924,-0.2433132641017437,1678122730.2536595,-0.033518823242187495,0.4165910888671875,9.854534033203125,-0.026365294791784455,0.002530003035575276,-0.003728425526110933,1678122726.647961
0.08626789203844965,-0.17530668899416924,-0.2433132641017437,1678122730.3548636,0.6823474731445313,0.6296750366210937,10.424354028320312,0.033955303898510286,0.016644756812995237,-0.037550571370117254,1678122726.6578562
0.08626789203844965,-0.17530668899416924,-0.2433132641017437,1678122730.4537504,1.5203180541992187,-0.41419688720703124,8.963891015625,0.022104237047657675,0.014247911831923924,0.01384843766841204,1678122726.6679268
0.08626789203844965,-0.17530668899416924,-0.2433132641017437,1678122730.553929,-0.584185205078125,0.8283937744140625,10.402806213378906,-0.04154531300523612,0.00905474770626941,-0.02024002428460221,1678122726.6779847
0.08626789203844965,-0.17530668899416924,-0.2433132641017437,1678122730.653805,0.3184288208007812,4.00310517578125,8.619125976562499,-0.0049268480166465905,0.0002663161090079238,-0.0009321063815277333,1678122726.6879005
0.08626789203844965,-0.17530668899416924,-0.2433132641017437,1678122730.75355,0.3184288208007812,1.5562310791015623,8.710105639648438,0.05459480234662439,0.01478054404993977,0.04314320965928366,1678122726.6979566
0.10152111033676192,-0.23963907780125737,-0.1891816034913063,1678122730.8701715,0.6919242797851562,-1.4891934326171874,10.328585961914062,-0.017576863194522972,0.00905474770626941,-0.025566346464760685,1678122726.707847
0.10152111033676192,-0.23963907780125737,-0.1891816034913063,1678122730.953887,0.033518823242187495,1.5346832641601562,8.825027319335938,-0.002663161090079238,0.001731054708551505,0.0111852765783328,1678122726.7179275
0.10152111033676192,-0.23963907780125737,-0.1891816034913063,1678122731.053536,0.5099649536132812,1.43652099609375,10.168174450683592,0.031025826699423126,0.0009321063815277333,-0.004660531907638666,1678122726.727981
0.10152111033676192,-0.23963907780125737,-0.1891816034913063,1678122731.1537044,-0.46208092041015625,-0.8379705810546875,9.358934289550781,0.003728425526110933,0.0003994741635118857,-0.02037318233910617,1678122726.7380238
0.10152111033676192,-0.23963907780125737,-0.1891816034913063,1678122731.2537851,1.3862427612304686,-0.0909796630859375,10.024522351074218,-0.037550571370117254,0.0035952674716069714,0.02862898171835181,1678122726.7480135
0.10152111033676192,-0.23963907780125737,-0.1891816034913063,1678122731.355778,-0.565031591796875,1.9536685546875,8.66940421142578,0.0018642127630554665,-0.009454221869781294,0.003994741635118857,1678122726.757891
0.10152111033676192,-0.23963907780125737,-0.1891816034913063,1678122731.4535298,1.618480322265625,-0.1484405029296875,8.645462194824217,0.034354778062022175,0.006524744670694133,-0.05752427954571154,1678122726.7680418
0.10152111033676192,-0.23963907780125737,-0.1891816034913063,1678122731.553637,2.2074539306640624,0.4213794921875,8.8872765625,-0.021837920938649752,-0.005459480234662438,0.012117382959860534,1678122726.778005
0.10152111033676192,-0.23963907780125737,-0.1891816034913063,1678122731.6540234,0.59376201171875,2.6623522460937497,9.327809667968749,-0.014381069886427886,0.009986854087797143,-0.014114753777419962,1678122726.7879252
0.10152111033676192,-0.23963907780125737,-0.1891816034913063,1678122731.753789,1.180341418457031,2.8754361938476563,9.643844287109374,0.0268979270098003,0.0010652644360316951,-0.026232136737280493,1678122726.7979863
0.12091690191300586,-0.24514408502727747,-0.1375517239794135,1678122731.8694563,1.3718775512695311,-2.530671154785156,8.968679418945312,0.015446334322459582,0.022903185374681445,0.05925533425426305,1678122726.8080006
0.12091690191300586,-0.24514408502727747,-0.1375517239794135,1678122731.9537199,0.5961562133789062,-0.5506663818359374,10.905588562011719,-0.0447411063133312,0.015579492376963544,-0.02503371424674484,1678122726.8179543
0.12091690191300586,-0.24514408502727747,-0.1375517239794135,1678122732.0538948,-0.3136404174804687,1.0175357055664063,9.753977563476562,0.026498452846288417,0.013715279613908078,-0.02157160482964183,1678122726.8280892
0.12091690191300586,-0.24514408502727747,-0.1375517239794135,1678122732.1546428,0.6368576416015624,-0.05985504150390625,8.908824377441405,0.038482677751644996,0.01731054708551505,0.0083889574337496,1678122726.8380291
0.12091690191300586,-0.24514408502727747,-0.1375517239794135,1678122732.25366,-0.239420166015625,-0.35194764404296874,11.125855114746093,-0.02942793004537558,0.0111852765783328,-0.023036343429185407,1678122726.847993
0.12091690191300586,-0.24514408502727747,-0.1375517239794135,1678122732.3558207,1.2856862915039062,2.250549560546875,8.683769421386717,-0.019307917903074477,0.005459480234662438,0.0010652644360316951,1678122726.858012
0.12091690191300586,-0.24514408502727747,-0.1375517239794135,1678122732.4535615,-0.9840168823242187,2.6623522460937497,8.872911352539061,0.04620584491287478,0.00346210941710301,0.02343581759269729,1678122726.867959
0.12091690191300586,-0.24514408502727747,-0.1375517239794135,1678122732.5539143,0.93852705078125,-1.3431471313476562,8.21690009765625,0.005060006071150552,0.0018642127630554665,-0.02716424311880823,1678122726.878008
0.12091690191300586,-0.24514408502727747,-0.1375517239794135,1678122732.6539123,0.0526724365234375,0.9720458740234375,9.011775048828124,-0.006391586616190171,-0.0066579027251980945,0.012250541014364496,1678122726.88793
0.12091690191300586,-0.24514408502727747,-0.1375517239794135,1678122732.7535992,1.1755530151367186,2.6575638427734374,10.026916552734374,0.03142530086293501,0.0002663161090079238,-0.02609897868277653,1678122726.8979864
0.16410679038381204,-0.2595930201932788,-0.2561914995312691,1678122732.874127,0.6631938598632812,-0.2442085693359375,9.404424121093749,0.026498452846288417,-0.003994741635118857,-0.019307917903074477,1678122726.9078612
0.16410679038381204,-0.2595930201932788,-0.2561914995312691,1678122732.953627,1.2042834350585936,-1.4700398193359374,10.180145458984374,-0.011318434632836761,0.01265001517787638,0.05752427954571154,1678122726.9179592
0.16410679038381204,-0.2595930201932788,-0.2561914995312691,1678122733.0541003,-0.49320554199218747,0.8786720092773437,9.030928662109375,-0.02583266257376861,-0.00346210941710301,-0.007057376888709981,1678122726.928044
0.16410679038381204,-0.2595930201932788,-0.2561914995312691,1678122733.1535563,1.0917559570312498,0.7134720947265625,10.817003100585938,0.03648530693408556,0.008655273542757524,-0.04767058351241837,1678122726.9389856
0.16410679038381204,-0.2595930201932788,-0.2561914995312691,1678122733.2535706,0.9050082275390624,0.3280056274414062,8.221688500976562,0.008921589651765448,0.014114753777419962,0.029028455881863695,1678122726.9480793
0.16410679038381204,-0.2595930201932788,-0.2561914995312691,1678122733.354905,-0.23702596435546874,1.4437036010742186,10.24000050048828,-0.030892668644919165,0.01478054404993977,-0.02157160482964183,1678122726.9579446
0.16410679038381204,-0.2595930201932788,-0.2561914995312691,1678122733.453794,0.3184288208007812,2.750937707519531,9.083601098632812,0.009321063815277333,0.004660531907638666,-0.01384843766841204,1678122726.9679537
0.16410679038381204,-0.2595930201932788,-0.2561914995312691,1678122733.5536618,1.37906015625,-0.28730419921875,8.63109698486328,0.047404267403410444,0.013315805450396189,0.051265850984025335,1678122726.9780157
0.16410679038381204,-0.2595930201932788,-0.2561914995312691,1678122733.6535432,0.39743747558593745,-2.2266075439453124,10.75714805908203,-0.038615835806148954,0.013715279613908078,-0.03036003642690331,1678122726.9879286
0.16410679038381204,-0.2595930201932788,-0.2561914995312691,1678122733.7540636,0.354341845703125,1.3287819213867187,9.157821350097656,0.005725796343670361,0.010652644360316953,-0.005725796343670361,1678122726.9980114
0.13584593683481216,-0.26278077997267246,-0.2869884166866541,1678122733.8698442,0.9457096557617187,0.1867477294921875,9.595960253906249,0.046072686858370814,0.015046860158947694,0.0031957933080950856,1678122727.0078895
0.13584593683481216,-0.26278077997267246,-0.2869884166866541,1678122733.953695,-1.4006079711914061,-1.0869675537109373,9.6917283203125,-0.014913702104443732,0.011584750741844684,-0.019973708175594285,1678122727.01796
0.13584593683481216,-0.26278077997267246,-0.2869884166866541,1678122734.0536833,1.7334020019531249,0.7924807495117187,9.445125549316407,-0.03795004553362914,-0.00346210941710301,0.03142530086293501,1678122727.0280335
0.13584593683481216,-0.26278077997267246,-0.2869884166866541,1678122734.1539197,0.011971008300781249,1.714248388671875,9.270348828125,0.018508969576050704,0.00625842856168621,0.010918960469324876,1678122727.0380163
0.13584593683481216,-0.26278077997267246,-0.2869884166866541,1678122734.2538092,1.0534487304687499,0.22744915771484372,8.451531860351562,0.0268979270098003,0.007057376888709981,-0.030759510590415203,1678122727.047996
0.13584593683481216,-0.26278077997267246,-0.2869884166866541,1678122734.3549364,0.6655880615234374,0.9457096557617187,8.896853369140624,-0.00972053797878922,0.001731054708551505,0.026365294791784455,1678122727.0578856
0.13584593683481216,-0.26278077997267246,-0.2869884166866541,1678122734.4536922,0.18435352783203124,2.47081611328125,9.514557397460937,0.005459480234662438,0.0001331580545039619,-0.02250371121116956,1678122727.067968
0.13584593683481216,-0.26278077997267246,-0.2869884166866541,1678122734.5541043,1.66636435546875,1.5849614990234373,9.629479077148437,0.026232136737280493,0.007057376888709981,-0.029960562263391426,1678122727.078028
0.13584593683481216,-0.26278077997267246,-0.2869884166866541,1678122734.6539197,1.388636962890625,-1.707065783691406,9.708487731933593,0.009587379924285258,0.02170476288414579,0.07057376888709982,1678122727.0879538
0.13584593683481216,-0.26278077997267246,-0.2869884166866541,1678122734.7537997,-0.16998831787109375,0.3854664672851562,9.823409411621093,-0.03129214280843105,0.007590009106725828,-0.015845808485971467,1678122727.0979974
0.20027529285289347,-0.2303453623317182,-0.39683165587484837,1678122734.8698537,0.9241618408203125,0.9026140258789062,10.874463940429687,0.030626352535911235,0.018508969576050704,-0.028096349500335963,1678122727.1078925
0.20027529285289347,-0.2303453623317182,-0.39683165587484837,1678122734.9538622,1.62805712890625,-0.36152445068359373,8.671798413085938,0.019307917903074477,0.017843179303530896,0.024900556192240877,1678122727.117965
0.20027529285289347,-0.2303453623317182,-0.39683165587484837,1678122735.054019,-0.6153098266601562,0.2920926025390625,10.907982763671875,-0.032357407244462746,0.01384843766841204,-0.023835291756209184,1678122727.1280239
0.20027529285289347,-0.2303453623317182,-0.39683165587484837,1678122735.1543858,0.6272808349609375,2.3774422485351563,8.580818749999999,-0.012383699068868458,0.0002663161090079238,-0.011584750741844684,1678122727.1380486
0.20027529285289347,-0.2303453623317182,-0.39683165587484837,1678122735.2535162,0.3184288208007812,1.4437036010742186,9.631873278808593,0.05526059261914419,0.01344896350490015,0.04314320965928366,1678122727.1480627
0.20027529285289347,-0.2303453623317182,-0.39683165587484837,1678122735.355537,0.9528922607421875,-2.2457611572265623,9.437942944335937,-0.0038615835806148956,0.011584750741844684,-0.0363521488795816,1678122727.1578307
0.20027529285289347,-0.2303453623317182,-0.39683165587484837,1678122735.4537303,-0.15083470458984374,1.7501614135742187,9.375693701171874,-0.003994741635118857,-0.0019973708175594286,-0.0006657902725198095,1678122727.167972
0.20027529285289347,-0.2303453623317182,-0.39683165587484837,1678122735.553943,0.45010991210937495,2.29843359375,9.821015209960937,0.036618464988589526,0.010519486305812991,-0.013715279613908078,1678122727.17803
0.20027529285289347,-0.2303453623317182,-0.39683165587484837,1678122735.6537158,-0.5267243652343749,-0.948103857421875,9.332598071289063,0.020639498448114094,0.0021305288720633903,-0.01691107292200316,1678122727.1879597
0.20027529285289347,-0.2303453623317182,-0.39683165587484837,1678122735.7534494,1.2737152832031249,-0.41898529052734373,9.586383447265625,-0.03781688747912518,0.008788431597261486,0.04061320662370838,1678122727.198012
0.10079599171876907,-0.3504558028653264,0.07790779042989016,1678122735.8695738,-0.16759411621093748,1.93451494140625,8.573636145019531,0.007057376888709981,0.004527373853134705,0.0002663161090079238,1678122727.2080438
0.10079599171876907,-0.3504558028653264,0.07790779042989016,1678122735.954176,0.8451531860351562,-0.5267243652343749,9.435548742675781,0.03222424918995878,0.010253170196805066,-0.042743735495771776,1678122727.2179756
0.10079599171876907,-0.3504558028653264,0.07790779042989016,1678122736.0534518,0.63206923828125,-0.6655880615234374,8.434772448730468,-0.024900556192240877,0.01478054404993977,0.028362665609343887,1678122727.2280254
0.10079599171876907,-0.3504558028653264,0.07790779042989016,1678122736.153643,0.16519991455078123,2.5330653564453125,9.797073193359374,-0.014114753777419962,0.0027963191445832,-0.02956108809987954,1678122727.2380483
0.10079599171876907,-0.3504558028653264,0.07790779042989016,1678122736.2537608,1.5131354492187499,1.209071838378906,9.167398156738281,0.029161613936367656,0.0027963191445832,-0.02250371121116956,1678122727.2480414
0.10079599171876907,-0.3504558028653264,0.07790779042989016,1678122736.3556488,0.699106884765625,-2.3415292236328122,9.394847314453125,0.012383699068868458,0.02170476288414579,0.0636495500528938,1678122727.2580686
0.10079599171876907,-0.3504558028653264,0.07790779042989016,1678122736.4535635,0.32561142578124996,-0.20350714111328125,10.510545288085936,-0.041944787168748006,0.008122641324741676,-0.028895297827359733,1678122727.2679882
0.10079599171876907,-0.3504558028653264,0.07790779042989016,1678122736.5534818,-0.062249243164062495,2.01112939453125,9.782707983398437,0.030892668644919165,0.008122641324741676,-0.023968449810713145,1678122727.2780554
0.10079599171876907,-0.3504558028653264,0.07790779042989016,1678122736.653807,0.42377369384765623,0.5698199951171875,8.916006982421875,0.031025826699423126,0.015845808485971467,0.009986854087797143,1678122727.2879598
0.10079599171876907,-0.3504558028653264,0.07790779042989016,1678122736.7539175,-0.7924807495117187,0.8667010009765624,10.448296044921875,-0.026365294791784455,0.01344896350490015,-0.02596582062827257,1678122727.2980156
0.05962599616032094,-0.40040305769070983,0.3532597394660115,1678122736.8699622,1.1659762084960936,2.389413256835937,9.179369165039063,-0.009986854087797143,0.00905474770626941,0.0002663161090079238,1678122727.3080606
0.05962599616032094,-0.40040305769070983,0.3532597394660115,1678122736.953613,-0.20829554443359374,0.9864110839843749,9.354145886230468,0.043675841877299504,0.005725796343670361,0.01890844373956259,1678122727.317984
0.05962599616032094,-0.40040305769070983,0.3532597394660115,1678122737.0537348,1.1563994018554686,-2.0254946044921875,9.629479077148437,-0.011717908796348646,0.0029294771990871615,-0.03874899386065292,1678122727.3280451
0.05962599616032094,-0.40040305769070983,0.3532597394660115,1678122737.1538434,0.20829554443359374,0.5506663818359374,9.102754711914063,-0.005326322180158476,0.0014647385995435807,0.010918960469324876,1678122727.3382947
0.05962599616032094,-0.40040305769070983,0.3532597394660115,1678122737.2540655,1.1707646118164061,1.9776105712890624,9.648632690429688,0.034088461953014244,-0.0011984224905356572,-0.011717908796348646,1678122727.3481362
0.05962599616032094,-0.40040305769070983,0.3532597394660115,1678122737.35574,-0.488417138671875,-0.8786720092773437,9.248801013183593,0.00346210941710301,0.0005326322180158476,-0.02436792397422503,1678122727.3579066
0.05962599616032094,-0.40040305769070983,0.3532597394660115,1678122737.4541929,2.147598889160156,-0.59376201171875,9.631873278808593,-0.03528688444354991,0.003728425526110933,0.04953479627547383,1678122727.3680215
0.05962599616032094,-0.40040305769070983,0.3532597394660115,1678122737.5546691,-0.4644751220703125,1.7118541870117185,8.908824377441405,-0.0018642127630554665,0.0031957933080950856,0.003062635253591124,1678122727.378052
0.05962599616032094,-0.40040305769070983,0.3532597394660115,1678122737.654024,0.9983820922851562,0.7805097412109374,9.279925634765624,0.03222424918995878,0.007190534943213943,-0.048869006002954025,1678122727.3879733
0.05962599616032094,-0.40040305769070983,0.3532597394660115,1678122737.7533026,0.6607996582031249,-0.3327940307617187,9.004592443847656,-0.007856325215733753,0.006524744670694133,0.02956108809987954,1678122727.3980258
0.3061015846324153,-0.2305330252274871,-0.3296191459521651,1678122737.873863,0.4213794921875,2.6192566162109374,9.665392102050781,-0.006524744670694133,0.005992112452678286,-0.017710021249026934,1678122727.4080954
0.3061015846324153,-0.2305330252274871,-0.3296191459521651,1678122737.9539173,1.4125789794921875,1.6711527587890624,9.18655177001953,0.02436792397422503,-0.005326322180158476,-0.01944107595757844,1678122727.4180346
0.3061015846324153,-0.2305330252274871,-0.3296191459521651,1678122738.0537744,0.9121908325195311,-2.233790148925781,9.402029919433593,0.02609897868277653,0.012916331286884304,0.06498113059793341,1678122727.4281662
0.3061015846324153,-0.2305330252274871,-0.3296191459521651,1678122738.1534858,0.4333505004882812,-0.814028564453125,10.996568225097656,-0.048869006002954025,0.0014647385995435807,-0.04127899689622819,1678122727.4389472
0.3061015846324153,-0.2305330252274871,-0.3296191459521651,1678122738.2533405,0.38307226562499996,1.0534487304687499,10.20169327392578,0.03368898778950236,0.011984224905356573,-0.018775285685058627,1678122727.4480665
0.3061015846324153,-0.2305330252274871,-0.3296191459521651,1678122738.3550134,0.9145850341796874,-0.26815058593749996,9.14824454345703,0.030093720317895388,0.011584750741844684,0.012916331286884304,1678122727.4580674
0.3061015846324153,-0.2305330252274871,-0.3296191459521651,1678122738.4537199,-0.63206923828125,0.25139117431640623,10.144232434082031,-0.03648530693408556,0.010918960469324876,-0.026498452846288417,1678122727.4680026
0.3061015846324153,-0.2305330252274871,-0.3296191459521651,1678122738.5533226,1.5227122558593749,2.3726538452148436,8.93755479736328,-0.021038972611625982,-0.0009321063815277333,0.010652644360316953,1678122727.4780853
0.3061015846324153,-0.2305330252274871,-0.3296191459521651,1678122738.6532273,-0.1005564697265625,1.7645266235351562,8.700528833007812,0.047004793239898555,0.007456851052221866,0.031558458917438977,1678122727.4879954
0.3061015846324153,-0.2305330252274871,-0.3296191459521651,1678122738.7537262,1.0223241088867188,-1.5897499023437498,9.37808790283203,-0.008921589651765448,0.0073236929977179045,-0.0363521488795816,1678122727.4980438
0.33300343446899205,-0.229666777420789,-0.22030243929475546,1678122738.8700264,0.5458779785156249,1.9800047729492187,9.011775048828124,-0.006791060779702058,-0.009587379924285258,0.00692421883420602,1678122727.5081005
0.33300343446899205,-0.229666777420789,-0.22030243929475546,1678122738.9536726,0.74699091796875,1.43652099609375,9.955090502929687,0.03289003946247859,0.012916331286884304,-0.013049489341388266,1678122727.5180104
0.33300343446899205,-0.229666777420789,-0.22030243929475546,1678122739.0532582,-0.469263525390625,-1.2569558715820313,9.550470422363281,-0.0002663161090079238,0.0,-0.02024002428460221,1678122727.5280783
0.33300343446899205,-0.229666777420789,-0.22030243929475546,1678122739.1534925,1.3383587280273437,-0.2920926025390625,9.777919580078125,-0.031558458917438977,0.010652644360316953,0.05259743152906495,1678122727.5380862
0.33300343446899205,-0.229666777420789,-0.22030243929475546,1678122739.2536855,-0.6177040283203125,1.5251064575195312,8.607154968261717,0.005725796343670361,0.007856325215733753,-0.022770027320177483,1678122727.5480626
0.33300343446899205,-0.229666777420789,-0.22030243929475546,1678122739.3550045,0.699106884765625,0.6296750366210937,9.548076220703125,0.03701793915210141,0.010918960469324876,-0.04687163518539458,1678122727.5580683
0.33300343446899205,-0.229666777420789,-0.22030243929475546,1678122739.453601,1.2234370483398436,-0.36391865234375,8.762778076171875,-0.009587379924285258,0.007856325215733753,0.03874899386065292,1678122727.5680268
0.33300343446899205,-0.229666777420789,-0.22030243929475546,1678122739.5537171,0.0047884033203125,2.8658593872070313,9.947907897949218,-0.00905474770626941,0.0009321063815277333,-0.017843179303530896,1678122727.578122
0.33300343446899205,-0.229666777420789,-0.22030243929475546,1678122739.653543,0.22026655273437498,2.0757728393554684,8.920795385742187,0.021172130666129944,-0.003728425526110933,-0.03129214280843105,1678122727.5880344
0.33300343446899205,-0.229666777420789,-0.22030243929475546,1678122739.7534425,0.7350199096679687,-0.6919242797851562,9.064447485351561,0.03289003946247859,0.01478054404993977,0.06032059869029474,1678122727.5980673
0.39010869298363104,-0.26009521866217256,-0.0892198858782649,1678122739.8698363,0.6536170532226562,-0.7613561279296874,10.77630167236328,-0.04034689051470046,0.0014647385995435807,-0.02157160482964183,1678122727.6080027
0.39010869298363104,-0.26009521866217256,-0.0892198858782649,1678122739.9543257,1.1659762084960936,-0.6488286499023437,10.491391674804687,0.01744370514001901,0.009853696033293181,0.030892668644919165,1678122727.6180255
0.39010869298363104,-0.26009521866217256,-0.0892198858782649,1678122740.053605,0.1149216796875,0.1867477294921875,9.380482104492186,0.03888215191515688,0.019041601794066554,-0.011318434632836761,1678122727.6280932
0.39010869298363104,-0.26009521866217256,-0.0892198858782649,1678122740.1534207,-0.39743747558593745,-0.4429273071289062,10.651803186035156,-0.010652644360316953,0.011584750741844684,-0.07989483270237714,1678122727.6380975
0.39010869298363104,-0.26009521866217256,-0.0892198858782649,1678122740.2533605,0.9504980590820312,2.3391350219726563,8.877699755859375,-0.01824265346704278,0.005060006071150552,0.019840550121090324,1678122727.648105
0.39010869298363104,-0.26009521866217256,-0.0892198858782649,1678122740.3557198,-0.07900865478515624,2.81558115234375,9.583989245605467,0.05193164125654514,0.0021305288720633903,0.06538060476144529,1678122727.6580086
0.39010869298363104,-0.26009521866217256,-0.0892198858782649,1678122740.4538312,0.8930372192382812,-0.5770026000976562,8.56166513671875,0.010785802414820914,0.0002663161090079238,-0.03954794218767669,1678122727.668026
0.39010869298363104,-0.26009521866217256,-0.0892198858782649,1678122740.5533807,0.6081272216796875,1.608903515625,8.901641772460938,-0.01478054404993977,-0.00625842856168621,0.003728425526110933,1678122727.6780965
0.39010869298363104,-0.26009521866217256,-0.0892198858782649,1678122740.6535046,0.6392518432617187,1.7453730102539062,9.572018237304688,0.021172130666129944,0.0023968449810713144,-0.0003994741635118857,1678122727.687999
0.39010869298363104,-0.26009521866217256,-0.0892198858782649,1678122740.75361,0.033518823242187495,-0.19632453613281248,9.464279162597656,0.027297401173312193,-0.004527373853134705,-0.0033289513625990473,1678122727.6980677
0.36528311140136793,-0.22282668016850948,-0.13504917547106743,1678122740.8731947,1.8171990600585937,-1.0702081420898437,9.153032946777342,-0.029294771990871618,0.011052118523828838,0.03874899386065292,1678122727.708095
0.36528311140136793,-0.22282668016850948,-0.13504917547106743,1678122740.9536128,-0.7757213378906249,0.45010991210937495,9.279925634765624,-0.016644756812995237,0.005992112452678286,-0.029694246154383503,1678122727.7180223
0.36528311140136793,-0.22282668016850948,-0.13504917547106743,1678122741.053431,1.1228805786132812,0.49799394531249996,10.127473022460936,0.023968449810713145,0.011318434632836761,-0.02942793004537558,1678122727.728089
0.36528311140136793,-0.22282668016850948,-0.13504917547106743,1678122741.153644,0.8092401611328125,-0.37828386230468747,9.1554271484375,-0.0033289513625990473,0.019307917903074477,0.043542683822795546,1678122727.7381651
0.36528311140136793,-0.22282668016850948,-0.13504917547106743,1678122741.253663,0.5195417602539062,2.2601263671875,10.09395419921875,-0.019840550121090324,0.007456851052221866,-0.04181162911424404,1678122727.7481477
0.36528311140136793,-0.22282668016850948,-0.13504917547106743,1678122741.3547213,0.45489831542968745,2.5617957763671875,8.142679846191406,0.012383699068868458,-0.0015978966540475428,-0.03448793611652613,1678122727.7581363
0.36528311140136793,-0.22282668016850948,-0.13504917547106743,1678122741.453351,0.15322890625,-0.1149216796875,9.342174877929686,0.04487426436783516,0.022636869265673522,0.07629956523077018,1678122727.768044
0.36528311140136793,-0.22282668016850948,-0.13504917547106743,1678122741.553266,0.6967126831054687,-1.0007762939453124,10.536881506347656,-0.038482677751644996,0.0018642127630554665,-0.025699504519264647,1678122727.7780888
0.36528311140136793,-0.22282668016850948,-0.13504917547106743,1678122741.6536186,-0.21068974609375,0.9648632690429687,9.87608184814453,0.015180018213451656,0.007057376888709981,-0.022770027320177483,1678122727.7880077
0.36528311140136793,-0.22282668016850948,-0.13504917547106743,1678122741.75447,0.6440402465820312,0.11731588134765625,9.97184991455078,0.044341632149819316,0.015579492376963544,-0.0011984224905356572,1678122727.7980695
0.40253216738346964,-0.17047222005203366,-0.1963782850652933,1678122741.8699594,-0.6488286499023437,-0.25139117431640623,9.777919580078125,-0.01265001517787638,0.0083889574337496,-0.0021305288720633903,1678122727.80814
0.40253216738346964,-0.17047222005203366,-0.1963782850652933,1678122741.9534175,0.9720458740234375,1.467645617675781,9.758765966796874,-0.03795004553362914,0.001731054708551505,0.014114753777419962,1678122727.818035
0.40253216738346964,-0.17047222005203366,-0.1963782850652933,1678122742.0538197,0.34237083740234375,2.6527754394531247,9.153032946777342,0.01944107595757844,0.0021305288720633903,-0.0007989483270237714,1678122727.8281367
0.40253216738346964,-0.17047222005203366,-0.1963782850652933,1678122742.153674,1.6136919189453125,-0.49320554199218747,9.141061938476563,0.010918960469324876,0.0055926382891664,-0.03888215191515688,1678122727.8381028
0.40253216738346964,-0.17047222005203366,-0.1963782850652933,1678122742.2535486,1.0558429321289062,1.3575123413085937,8.350975390624999,-0.018775285685058627,0.005060006071150552,0.034088461953014244,1678122727.8481226
0.40253216738346964,-0.17047222005203366,-0.1963782850652933,1678122742.3550665,0.8164227661132812,2.7365724975585937,9.773131176757811,0.018375811521546742,0.006791060779702058,-0.015446334322459582,1678122727.8581433
0.40253216738346964,-0.17047222005203366,-0.1963782850652933,1678122742.4537163,0.6775590698242188,0.1149216796875,9.555258825683593,0.02423476591972107,-0.0035952674716069714,-0.031691616971942935,1678122727.8680444
0.40253216738346964,-0.17047222005203366,-0.1963782850652933,1678122742.5536168,0.7781155395507812,-1.4030021728515625,9.854534033203125,-0.01344896350490015,0.014647385995435809,0.06844324001503642,1678122727.8781157
0.40253216738346964,-0.17047222005203366,-0.1963782850652933,1678122742.653411,-0.2154781494140625,0.41898529052734373,9.689334118652344,-0.016511598758491276,0.008655273542757524,-0.00972053797878922,1678122727.8880467
0.40253216738346964,-0.17047222005203366,-0.1963782850652933,1678122742.753516,0.20350714111328125,1.5322890624999999,10.453084448242187,0.024900556192240877,0.013049489341388266,-0.0541953281831125,1678122727.8980794
0.3331990125006996,-0.25884308153763413,-0.015887965448200703,1678122742.8725967,1.5945383056640625,-0.6464344482421874,8.221688500976562,0.014913702104443732,0.017976337358034857,0.02436792397422503,1678122727.908114
0.3331990125006996,-0.25884308153763413,-0.015887965448200703,1678122742.9538224,-0.4381389038085937,1.2114660400390624,10.43871923828125,-0.040879522732716306,0.003728425526110933,-0.02316950148368937,1678122727.9180548
0.3331990125006996,-0.25884308153763413,-0.015887965448200703,1678122743.0534174,0.6655880615234374,2.77727392578125,8.271966735839843,-0.005992112452678286,0.0010652644360316951,-0.021438446775137867,1678122727.9281297
0.3331990125006996,-0.25884308153763413,-0.015887965448200703,1678122743.1533577,0.14604630126953125,0.4261678955078125,9.404424121093749,0.04340952576829158,0.010519486305812991,0.05219795736555306,1678122727.938096
0.3331990125006996,-0.25884308153763413,-0.015887965448200703,1678122743.2535572,1.0438719238281249,-1.3742717529296875,9.7683427734375,-0.03555320055255783,0.004527373853134705,-0.03475425222553406,1678122727.948075
0.3331990125006996,-0.25884308153763413,-0.015887965448200703,1678122743.3548923,0.26815058593749996,0.9744400756835937,9.813832604980469,0.0002663161090079238,-0.003062635253591124,-0.003994741635118857,1678122727.95807
0.3331990125006996,-0.25884308153763413,-0.015887965448200703,1678122743.4535594,0.9552864624023437,0.8667010009765624,9.715670336914062,0.031025826699423126,0.005992112452678286,0.0005326322180158476,1678122727.9680421
0.3331990125006996,-0.25884308153763413,-0.015887965448200703,1678122743.5534282,-1.0175357055664063,-1.0965443603515623,9.871293444824218,0.0006657902725198095,0.01731054708551505,-0.014247911831923924,1678122727.978109
0.3331990125006996,-0.25884308153763413,-0.015887965448200703,1678122743.6543121,1.9129671264648436,0.7757213378906249,10.144232434082031,-0.033955303898510286,0.007590009106725828,0.03488741028003802,1678122727.9880533
0.3331990125006996,-0.25884308153763413,-0.015887965448200703,1678122743.7538412,-0.8020575561523438,1.8315642700195311,8.650250598144531,0.024501082028728992,0.01944107595757844,0.003062635253591124,1678122727.9981103
0.34849330387078226,-0.26520007150247693,-0.048974618315696716,1678122743.869468,1.2569558715820313,-0.0430956298828125,9.574412438964844,0.02609897868277653,0.013981595722916,-0.04048004856920442,1678122728.0080225
0.34849330387078226,-0.26520007150247693,-0.048974618315696716,1678122743.953345,0.9864110839843749,0.5099649536132812,8.245630517578125,-0.008122641324741676,0.010652644360316953,0.027963191445832,1678122728.0180724
0.34849330387078226,-0.26520007150247693,-0.048974618315696716,1678122744.053669,-0.2346317626953125,2.2026655273437497,10.151415039062499,0.006524744670694133,0.012250541014364496,-0.009853696033293181,1678122728.0281322
0.34849330387078226,-0.26520007150247693,-0.048974618315696716,1678122744.1537037,0.19632453613281248,0.9457096557617187,9.26316622314453,0.03289003946247859,-0.0002663161090079238,-0.02783003339132804,1678122728.03808
0.34849330387078226,-0.26520007150247693,-0.048974618315696716,1678122744.2535396,1.6543933471679686,-2.389413256835937,9.397241516113281,0.007856325215733753,0.011052118523828838,0.0604537567447987,1678122728.0481453
0.34849330387078226,-0.26520007150247693,-0.048974618315696716,1678122744.3549416,0.40462008056640625,-0.3711012573242187,10.66137999267578,-0.01944107595757844,0.003728425526110933,-0.007723167161229791,1678122728.0581503
0.34849330387078226,-0.26520007150247693,-0.048974618315696716,1678122744.4537508,0.8595183959960937,0.8212111694335937,10.275913525390624,0.028096349500335963,0.0073236929977179045,-0.02343581759269729,1678122728.0680728
0.34849330387078226,-0.26520007150247693,-0.048974618315696716,1678122744.5536382,1.9416975463867185,0.316034619140625,9.823409411621093,0.027563717282320117,0.01038632825130903,0.026365294791784455,1678122728.0781407
0.34849330387078226,-0.26520007150247693,-0.048974618315696716,1678122744.653467,0.1197100830078125,0.70868369140625,9.758765966796874,-0.026365294791784455,0.0167779148674992,-0.015046860158947694,1678122728.0880687
0.34849330387078226,-0.26520007150247693,-0.048974618315696716,1678122744.7533703,0.612915625,2.2266075439453124,8.894459167480468,0.005992112452678286,0.0018642127630554665,-0.01691107292200316,1678122728.0981357
0.3579462683410384,-0.24303143797442317,-0.03797348588705063,1678122744.8698733,0.70868369140625,0.63206923828125,8.628702783203124,0.060586914799302664,0.015579492376963544,0.045140580476843085,1678122728.1081703
0.3579462683410384,-0.24303143797442317,-0.03797348588705063,1678122744.953585,0.6560112548828124,-1.9608511596679685,9.545682019042967,-0.0167779148674992,0.0002663161090079238,-0.02157160482964183,1678122728.118084
0.3579462683410384,-0.24303143797442317,-0.03797348588705063,1678122745.053524,-0.0383072265625,1.13006318359375,9.840168823242188,0.014514227940931847,0.0005326322180158476,0.00346210941710301,1678122728.1282868
0.3579462683410384,-0.24303143797442317,-0.03797348588705063,1678122745.1536086,1.5610194824218748,1.2617442749023438,9.4618849609375,0.041012680787220264,0.010918960469324876,-0.0035952674716069714,1678122728.138171
0.3579462683410384,-0.24303143797442317,-0.03797348588705063,1678122745.254117,-0.40222587890625,-2.3223756103515623,10.244788903808594,0.0066579027251980945,0.011584750741844684,-0.017710021249026934,1678122728.1481595
0.3579462683410384,-0.24303143797442317,-0.03797348588705063,1678122745.355081,2.5809493896484375,0.9265560424804687,9.871293444824218,-0.027430559227816155,0.005992112452678286,0.03994741635118857,1678122728.1579123
0.3579462683410384,-0.24303143797442317,-0.03797348588705063,1678122745.453413,-0.086191259765625,2.5905261962890624,8.825027319335938,0.030759510590415203,0.017976337358034857,0.012250541014364496,1678122728.1680884
0.3579462683410384,-0.24303143797442317,-0.03797348588705063,1678122745.5534642,1.0989385620117187,-0.45489831542968745,9.095572106933593,0.031025826699423126,0.0111852765783328,-0.041944787168748006,1678122728.1782439
0.3579462683410384,-0.24303143797442317,-0.03797348588705063,1678122745.6535423,1.0175357055664063,0.8307879760742187,8.700528833007812,-0.01344896350490015,0.0002663161090079238,0.027430559227816155,1678122728.1880593
0.3579462683410384,-0.24303143797442317,-0.03797348588705063,1678122745.7535524,0.5482721801757812,2.7557261108398436,9.323021264648437,0.019174759848570515,0.003728425526110933,-0.009986854087797143,1678122728.1981306
0.3684992033522576,-0.2574171703308821,-0.03507683984935284,1678122745.8721893,-0.3280056274414062,0.5770026000976562,9.555258825683593,0.03542004249805387,0.001331580545039619,-0.018775285685058627,1678122728.2080927
0.3684992033522576,-0.2574171703308821,-0.03507683984935284,1678122745.9534698,1.6256629272460936,-1.4341267944335936,9.504980590820312,-0.006391586616190171,0.005992112452678286,0.05099953487501741,1678122728.2181025
0.3684992033522576,-0.2574171703308821,-0.03507683984935284,1678122746.0534253,0.41898529052734373,-0.3758896606445312,10.149020837402343,-0.027963191445832,0.004660531907638666,-0.017710021249026934,1678122728.228279
0.3684992033522576,-0.2574171703308821,-0.03507683984935284,1678122746.1536047,0.928950244140625,0.8571241943359375,10.304643945312499,0.025566346464760685,0.010253170196805066,-0.03382214584400632,1678122728.2381573
0.3684992033522576,-0.2574171703308821,-0.03507683984935284,1678122746.2536428,1.8555062866210936,-0.07422025146484375,8.300697155761718,0.00692421883420602,0.014114753777419962,0.014913702104443732,1678122728.2481463
0.3684992033522576,-0.2574171703308821,-0.03507683984935284,1678122746.3549542,0.16041151123046873,2.1739351074218747,10.541669909667968,-0.029294771990871618,0.02090581455712202,-0.014913702104443732,1678122728.2580574
0.3684992033522576,-0.2574171703308821,-0.03507683984935284,1678122746.453379,0.3495534423828125,2.9927520751953125,8.21690009765625,-0.0010652644360316951,0.0073236929977179045,-0.021837920938649752,1678122728.2682526
0.3684992033522576,-0.2574171703308821,-0.03507683984935284,1678122746.5536172,0.2561795776367187,1.668758557128906,8.772354882812499,0.0486026898939461,0.01344896350490015,0.03795004553362914,1678122728.2785227
0.3684992033522576,-0.2574171703308821,-0.03507683984935284,1678122746.6536417,-0.031124621582031248,-0.9600748657226562,9.9215716796875,-0.035153726389045944,0.004394215798630743,-0.023036343429185407,1678122728.2881231
0.3684992033522576,-0.2574171703308821,-0.03507683984935284,1678122746.75337,-0.8116343627929687,2.3678654418945313,9.083601098632812,0.006391586616190171,0.007456851052221866,-0.022104237047657675,1678122728.2981696
0.38131010107463226,-0.26712538208812475,-0.04621957894414663,1678122746.8701775,0.8786720092773437,1.4532804077148436,9.811438403320311,0.02876213977285577,0.012916331286884304,-0.013715279613908078,1678122728.3080776
0.38131010107463226,-0.26712538208812475,-0.04621957894414663,1678122746.9539468,-0.033518823242187495,-2.4660277099609376,9.809044201660155,-0.01944107595757844,0.013182647395892227,-0.006791060779702058,1678122728.3181152
0.38131010107463226,-0.26712538208812475,-0.04621957894414663,1678122747.0535858,1.448492004394531,0.8451531860351562,9.6151138671875,-0.047803741566922325,0.00346210941710301,0.01478054404993977,1678122728.328304
0.38131010107463226,-0.26712538208812475,-0.04621957894414663,1678122747.1533,-0.3950432739257812,1.189918225097656,8.386888415527343,0.00905474770626941,0.011318434632836761,-0.0023968449810713144,1678122728.3381906
0.38131010107463226,-0.26712538208812475,-0.04621957894414663,1678122747.2533839,1.6400281372070311,-0.6296750366210937,9.521740002441407,0.010120012142301104,0.005193164125654515,-0.03195793308095086,1678122728.3481703
0.38131010107463226,-0.26712538208812475,-0.04621957894414663,1678122747.3557765,0.8092401611328125,0.6751648681640625,8.40125362548828,-0.02876213977285577,0.003728425526110933,0.019307917903074477,1678122728.3580816
0.38131010107463226,-0.26712538208812475,-0.04621957894414663,1678122747.4543953,0.3447650390625,2.3511060302734372,9.191340173339842,0.015446334322459582,0.004394215798630743,-0.009321063815277333,1678122728.368115
0.38131010107463226,-0.26712538208812475,-0.04621957894414663,1678122747.5557132,-0.5243301635742187,1.1827356201171875,9.253589416503905,0.02037318233910617,-0.0019973708175594286,-0.0010652644360316951,1678122728.3782942
0.38131010107463226,-0.26712538208812475,-0.04621957894414663,1678122747.6533308,0.373495458984375,-1.0582371337890624,9.215282189941405,-0.0003994741635118857,0.010652644360316953,0.05512743456464023,1678122728.3881013
0.38131010107463226,-0.26712538208812475,-0.04621957894414663,1678122747.7539694,0.4644751220703125,-0.55545478515625,10.620678564453124,-0.0268979270098003,-0.011451592687340723,-0.022770027320177483,1678122728.3981574
0.39340730756521225,-0.24341466696932912,-0.04751302022486925,1678122747.8717132,1.4221557861328125,0.33518823242187495,9.93354268798828,0.0251668723012488,0.0014647385995435807,-0.03022687837239935,1678122728.4080846
0.39340730756521225,-0.24341466696932912,-0.04751302022486925,1678122747.9533653,0.9169792358398436,-0.8571241943359375,9.184157568359375,0.013315805450396189,0.007723167161229791,0.01344896350490015,1678122728.4181232
0.39340730756521225,-0.24341466696932912,-0.04751302022486925,1678122748.0537481,0.737414111328125,0.7517793212890624,9.849745629882811,-0.033955303898510286,0.00692421883420602,-0.008655273542757524,1678122728.4283006
0.39340730756521225,-0.24341466696932912,-0.04751302022486925,1678122748.1535923,0.1292868896484375,2.6503812377929687,8.762778076171875,0.004127899689622819,-0.0019973708175594286,-0.026631610900792378,1678122728.438148
0.39340730756521225,-0.24341466696932912,-0.04751302022486925,1678122748.2535827,0.8379705810546875,1.656787548828125,8.173804467773436,0.053662695965096645,0.01251685712337242,0.020106866230098247,1678122728.448187
0.39340730756521225,-0.24341466696932912,-0.04751302022486925,1678122748.3549232,-0.2537853759765625,-1.5897499023437498,10.204087475585936,-0.022636869265673522,0.01824265346704278,-0.005725796343670361,1678122728.4580836
0.39340730756521225,-0.24341466696932912,-0.04751302022486925,1678122748.4534745,-0.3064578125,2.427720483398437,9.074024291992187,0.0027963191445832,0.003728425526110933,-0.0003994741635118857,1678122728.4681373
0.39340730756521225,-0.24341466696932912,-0.04751302022486925,1678122748.554316,0.21787235107421873,2.2577321655273437,10.453084448242187,0.03448793611652613,0.0035952674716069714,-0.033156355571486516,1678122728.4783084
0.39340730756521225,-0.24341466696932912,-0.04751302022486925,1678122748.653657,-0.0143652099609375,-1.927332336425781,10.04846436767578,-0.008655273542757524,0.011717908796348646,0.004660531907638666,1678122728.488164
0.39340730756521225,-0.24341466696932912,-0.04751302022486925,1678122748.7533038,0.833182177734375,1.189918225097656,9.13627353515625,-0.03994741635118857,-0.0038615835806148956,0.05273058958356891,1678122728.4982805
0.3134578746976331,-0.29653289495036006,-0.012995347380638123,1678122748.8705537,-0.5099649536132812,1.8507178833007811,8.846575134277343,0.014114753777419962,-0.002530003035575276,0.0027963191445832,1678122728.5080812
0.3134578746976331,-0.29653289495036006,-0.012995347380638123,1678122748.9535437,1.0079588989257813,-1.158793603515625,8.987833032226561,0.024501082028728992,-0.0018642127630554665,-0.045140580476843085,1678122728.5181084
0.3134578746976331,-0.29653289495036006,-0.012995347380638123,1678122749.0534983,1.6136919189453125,0.41898529052734373,8.652644799804687,-0.024634240083232953,0.0006657902725198095,-0.003062635253591124,1678122728.5283098
0.3134578746976331,-0.29653289495036006,-0.012995347380638123,1678122749.1533666,0.5506663818359374,2.4875755249023435,9.478644372558593,0.008921589651765448,0.007190534943213943,-0.0167779148674992,1678122728.538129
0.3134578746976331,-0.29653289495036006,-0.012995347380638123,1678122749.2533612,0.6512228515624999,-0.1149216796875,9.832986218261718,0.0335558297349984,0.0027963191445832,-0.006391586616190171,1678122728.5481992
0.3134578746976331,-0.29653289495036006,-0.012995347380638123,1678122749.3552456,0.8451531860351562,-1.0223241088867188,8.927977990722656,0.003062635253591124,0.01890844373956259,0.04247741938676385,1678122728.5580897
0.3134578746976331,-0.29653289495036006,-0.012995347380638123,1678122749.4537675,0.7254431030273437,-0.14604630126953125,10.522516296386717,-0.02716424311880823,0.0002663161090079238,-0.031158984753927088,1678122728.568118
0.3134578746976331,-0.29653289495036006,-0.012995347380638123,1678122749.5532403,0.679953271484375,0.7062894897460937,10.244788903808594,0.02862898171835181,0.006524744670694133,-0.015313176267955617,1678122728.5782552
0.3134578746976331,-0.29653289495036006,-0.012995347380638123,1678122749.6535501,0.9720458740234375,0.229843359375,8.781931689453124,0.011717908796348646,0.008788431597261486,0.016378440703987314,1678122728.5880983
0.3134578746976331,-0.29653289495036006,-0.012995347380638123,1678122749.7535994,-0.031124621582031248,1.2569558715820313,10.218452685546874,-0.03209109113545482,0.009454221869781294,-0.011451592687340723,1678122728.5981548
-0.05502482404699549,-0.4263152130879462,0.020480869337916374,1678122749.869425,0.7613561279296874,2.3343466186523436,8.686163623046875,0.006524744670694133,0.0019973708175594286,-0.007989483270237714,1678122728.6081219
-0.05502482404699549,-0.4263152130879462,0.020480869337916374,1678122749.9535055,0.27293898925781246,1.3407529296874998,8.827421520996094,0.04793689962142629,0.003994741635118857,0.04940163822096987,1678122728.6181524
-0.05502482404699549,-0.4263152130879462,0.020480869337916374,1678122750.053514,0.507570751953125,-2.8012159423828122,10.335768566894531,-0.02077265650261806,0.0005326322180158476,-0.012383699068868458,1678122728.628387
-0.05502482404699549,-0.4263152130879462,0.020480869337916374,1678122750.1535964,-0.277727392578125,1.7381904052734374,9.390058911132812,0.0038615835806148956,-0.010918960469324876,-0.0066579027251980945,1678122728.6381712
-0.05502482404699549,-0.4263152130879462,0.020480869337916374,1678122750.2537723,1.5107412475585937,1.8459294799804686,9.5001921875,0.03448793611652613,0.0001331580545039619,0.0010652644360316951,1678122728.6481698
-0.05502482404699549,-0.4263152130879462,0.020480869337916374,1678122750.3550258,-0.21308394775390624,-1.7429788085937499,10.32379755859375,0.0003994741635118857,-0.005060006071150552,0.006391586616190171,1678122728.658024
-0.05502482404699549,-0.4263152130879462,0.020480869337916374,1678122750.4533923,2.2840683837890623,-0.1197100830078125,9.574412438964844,-0.04141215495073215,-0.0029294771990871615,0.023968449810713145,1678122728.6682038
-0.05502482404699549,-0.4263152130879462,0.020480869337916374,1678122750.5532703,0.4644751220703125,2.4109610717773435,8.904035974121093,0.009587379924285258,0.0049268480166465905,-0.019307917903074477,1678122728.6783888
-0.05502482404699549,-0.4263152130879462,0.020480869337916374,1678122750.6537616,1.5969325073242187,0.38307226562499996,9.066841687011719,0.031558458917438977,0.012117382959860534,-0.03022687837239935,1678122728.6881244
-0.05502482404699549,-0.4263152130879462,0.020480869337916374,1678122750.7536137,1.7429788085937499,0.9337386474609375,8.437166650390624,-0.013049489341388266,0.017710021249026934,0.01478054404993977,1678122728.698203
-0.7046360025997274,-0.5179435042664409,0.07818082626909018,1678122750.8698633,1.1276689819335937,2.5570073730468748,10.012551342773437,0.006391586616190171,0.02170476288414579,-0.02316950148368937,1678122728.7080264
-0.7046360025997274,-0.5179435042664409,0.07818082626909018,1678122750.9533024,-0.2609679809570312,1.5083470458984374,9.119514123535156,0.029960562263391426,0.009321063815277333,-0.021837920938649752,1678122728.718144
-0.7046360025997274,-0.5179435042664409,0.07818082626909018,1678122751.0542927,0.565031591796875,-1.0366893188476562,9.279925634765624,-0.003994741635118857,0.02423476591972107,0.05552690872815212,1678122728.7283785
-0.7046360025997274,-0.5179435042664409,0.07818082626909018,1678122751.1535838,0.02154781494140625,-0.08140285644531249,10.433930834960936,-0.03728425526110933,0.0111852765783328,-0.0268979270098003,1678122728.7382047
-0.7046360025997274,-0.5179435042664409,0.07818082626909018,1678122751.2534428,-0.11252747802734374,-0.18914193115234373,10.606313354492187,0.02503371424674484,0.019307917903074477,-0.047404267403410444,1678122728.7481875
-0.7046360025997274,-0.5179435042664409,0.07818082626909018,1678122751.354822,0.5267243652343749,-0.4955997436523437,9.038111267089842,0.02530003035575276,0.01744370514001901,0.003062635253591124,1678122728.7581902
-0.7046360025997274,-0.5179435042664409,0.07818082626909018,1678122751.453888,-0.40940848388671874,-1.0869675537109373,9.725247143554688,-0.03209109113545482,0.01344896350490015,0.012916331286884304,1678122728.7681887
-0.7046360025997274,-0.5179435042664409,0.07818082626909018,1678122751.5538766,0.5099649536132812,2.3918074584960936,8.84178673095703,-0.007190534943213943,-0.005326322180158476,-0.01744370514001901,1678122728.778338
-0.7046360025997274,-0.5179435042664409,0.07818082626909018,1678122751.6533685,0.39264907226562495,1.5801730957031248,8.149862451171874,0.05552690872815212,0.0,0.019041601794066554,1678122728.788133
-0.7046360025997274,-0.5179435042664409,0.07818082626909018,1678122751.753392,0.6200982299804687,-2.4109610717773435,9.442731347656249,-0.005326322180158476,0.0029294771990871615,-0.019041601794066554,1678122728.7982218
-1.3960990120540373,-0.6460730014368892,0.18699322175234556,1678122751.869853,0.40222587890625,1.8028338500976562,9.406818322753905,0.00905474770626941,0.0029294771990871615,-0.002530003035575276,1678122728.8081343
-1.3960990120540373,-0.6460730014368892,0.18699322175234556,1678122751.9534874,1.905784521484375,2.6982652709960937,9.976638317871092,0.040879522732716306,0.0038615835806148956,-0.01691107292200316,1678122728.8182006
-1.3960990120540373,-0.6460730014368892,0.18699322175234556,1678122752.0536046,-0.06943184814453125,-1.6136919189453125,10.01733974609375,0.012783173232380343,0.015180018213451656,0.0011984224905356572,1678122728.828337
-1.3960990120540373,-0.6460730014368892,0.18699322175234556,1678122752.153479,1.8531120849609375,0.02633621826171875,9.993397729492187,-0.03488741028003802,0.01038632825130903,0.041944787168748006,1678122728.8387873
-1.3960990120540373,-0.6460730014368892,0.18699322175234556,1678122752.253587,-0.28969840087890625,1.1731588134765625,9.176974963378905,-0.002663161090079238,0.010918960469324876,-0.015446334322459582,1678122728.8481765
-1.3960990120540373,-0.6460730014368892,0.18699322175234556,1678122752.3551717,1.2114660400390624,-0.055066638183593745,10.072406384277343,0.03542004249805387,0.004127899689622819,-0.021038972611625982,1678122728.8581014
-1.3960990120540373,-0.6460730014368892,0.18699322175234556,1678122752.453238,0.4572925170898437,0.016759411621093748,8.176198669433592,-0.0021305288720633903,0.011584750741844684,0.017976337358034857,1678122728.8681552
-1.3960990120540373,-0.6460730014368892,0.18699322175234556,1678122752.5534666,-0.01915361328125,2.877830395507812,10.462661254882812,-0.011451592687340723,0.007190534943213943,-0.022770027320177483,1678122728.878287
-1.3960990120540373,-0.6460730014368892,0.18699322175234556,1678122752.653757,0.02633621826171875,1.7693150268554687,8.497021691894531,0.0195742340120824,0.00346210941710301,-0.019041601794066554,1678122728.8881464
-1.3960990120540373,-0.6460730014368892,0.18699322175234556,1678122752.7535107,0.6847416748046875,-0.39264907226562495,9.198522778320312,0.039414784133172724,0.010918960469324876,0.0503337446024976,1678122728.8982167
-2.1342518208548427,-0.8212725189514458,0.21263210102915764,1678122752.8727221,1.2593500732421874,-1.2832920898437499,10.295067138671874,-0.034088461953014244,0.003062635253591124,-0.013981595722916,1678122728.9081233
-2.1342518208548427,-0.8212725189514458,0.21263210102915764,1678122752.9534872,-0.3902548706054687,0.11252747802734374,10.216058483886718,0.020106866230098247,0.0031957933080950856,-0.015313176267955617,1678122728.9181886
-2.1342518208548427,-0.8212725189514458,0.21263210102915764,1678122753.053538,1.0630255371093749,1.1875240234375,9.107543115234375,0.032490565298966705,0.006524744670694133,0.003062635253591124,1678122728.9282193
-2.1342518208548427,-0.8212725189514458,0.21263210102915764,1678122753.1536927,0.2753331909179687,-2.4516625,9.900023864746093,-0.02090581455712202,0.014247911831923924,0.012250541014364496,1678122728.9388232
-2.1342518208548427,-0.8212725189514458,0.21263210102915764,1678122753.2534907,1.6927005737304686,0.6464344482421874,9.452308154296874,-0.030892668644919165,-0.0022636869265673524,0.007190534943213943,1678122728.948284
-2.1342518208548427,-0.8212725189514458,0.21263210102915764,1678122753.3548238,0.36391865234375,2.31758720703125,8.80347950439453,0.038482677751644996,0.009454221869781294,-0.001331580545039619,1678122728.9581375
-2.1342518208548427,-0.8212725189514458,0.21263210102915764,1678122753.4534025,0.7589619262695312,-1.189918225097656,9.193734375,0.02436792397422503,0.014114753777419962,-0.012383699068868458,1678122728.9681714
-2.1342518208548427,-0.8212725189514458,0.21263210102915764,1678122753.5534592,0.4740519287109375,1.1348515869140625,8.813056311035156,-0.01478054404993977,0.006524744670694133,0.02170476288414579,1678122728.9781988
-2.1342518208548427,-0.8212725189514458,0.21263210102915764,1678122753.6535084,0.2705447875976562,3.948038537597656,9.988609326171874,0.021837920938649752,0.008522115488253561,-0.02942793004537558,1678122728.988161
-2.1342518208548427,-0.8212725189514458,0.21263210102915764,1678122753.7534928,0.4381389038085937,0.6464344482421874,9.595960253906249,0.03981425829668461,0.009454221869781294,-0.019041601794066554,1678122728.9982271
-2.8434753391775303,-0.9705143375322223,0.11308018770068884,1678122753.868861,1.8531120849609375,-1.3910311645507811,9.859322436523437,0.009587379924285258,0.017044230976507122,0.07030745277809189,1678122729.0081565
-2.8434753391775303,-0.9705143375322223,0.11308018770068884,1678122753.953523,1.1851298217773436,-0.3327940307617187,10.194510668945313,-0.02956108809987954,0.007856325215733753,-0.0251668723012488,1678122729.0181959
-2.8434753391775303,-0.9705143375322223,0.11308018770068884,1678122754.0538156,-0.3112462158203125,-0.373495458984375,10.848127722167968,0.026631610900792378,0.01478054404993977,-0.03568635860706179,1678122729.0281088
-2.8434753391775303,-0.9705143375322223,0.11308018770068884,1678122754.1534593,0.6967126831054687,-0.05746083984375,8.98304462890625,0.019973708175594285,0.017576863194522972,0.02356897564720126,1678122729.0382617
-2.8434753391775303,-0.9705143375322223,0.11308018770068884,1678122754.2535126,0.63206923828125,0.3591302490234375,10.081983190917969,-0.03422162000751821,0.008788431597261486,0.0002663161090079238,1678122729.04828
-2.8434753391775303,-0.9705143375322223,0.11308018770068884,1678122754.3548193,0.612915625,2.7078420776367187,9.229647399902344,-0.014247911831923924,0.0021305288720633903,-0.017710021249026934,1678122729.0581458
-2.8434753391775303,-0.9705143375322223,0.11308018770068884,1678122754.453535,0.32082302246093747,2.379836450195312,8.039729174804688,0.058989018145255125,0.010918960469324876,0.036618464988589526,1678122729.0681937
-2.8434753391775303,-0.9705143375322223,0.11308018770068884,1678122754.5534441,1.3910311645507811,-2.418143676757812,10.149020837402343,0.0066579027251980945,0.011052118523828838,-0.007723167161229791,1678122729.078163
-2.8434753391775303,-0.9705143375322223,0.11308018770068884,1678122754.653394,-0.16280571289062498,1.898601916503906,8.406042028808594,-0.008655273542757524,-0.0015978966540475428,-0.005060006071150552,1678122729.0882077
-2.8434753391775303,-0.9705143375322223,0.11308018770068884,1678122754.7535203,0.9433154541015625,2.89219560546875,10.029310754394531,0.038482677751644996,0.005060006071150552,-0.027963191445832,1678122729.0982342
-3.585422880772967,-1.1332739992067218,0.13928488455712795,1678122754.8697143,-0.06703764648437499,-1.01514150390625,9.528922607421874,0.03475425222553406,0.0083889574337496,-0.007989483270237714,1678122729.1081734
-3.585422880772967,-1.1332739992067218,0.13928488455712795,1678122754.9538538,1.1540052001953125,-0.8259995727539062,9.737218151855469,-0.029294771990871618,0.008122641324741676,0.056592173164183815,1678122729.1181996
-3.585422880772967,-1.1332739992067218,0.13928488455712795,1678122755.053543,0.0047884033203125,1.209071838378906,9.399635717773437,-0.010253170196805066,0.0049268480166465905,-0.02530003035575276,1678122729.1281307
-3.585422880772967,-1.1332739992067218,0.13928488455712795,1678122755.1542442,0.584185205078125,0.7757213378906249,10.275913525390624,0.028229507554839925,0.0049268480166465905,-0.030626352535911235,1678122729.1382651
-3.585422880772967,-1.1332739992067218,0.13928488455712795,1678122755.2539036,0.5339069702148437,0.06943184814453125,7.766790185546874,-0.007057376888709981,0.010918960469324876,0.030493194481407273,1678122729.1482303
-3.585422880772967,-1.1332739992067218,0.13928488455712795,1678122755.3550496,-0.05027823486328125,1.9512743530273435,10.307038146972655,-0.02316950148368937,0.0023968449810713144,-0.010519486305812991,1678122729.1581616
-3.585422880772967,-1.1332739992067218,0.13928488455712795,1678122755.4531872,-0.5147533569335937,1.7286135986328124,8.588001354980468,0.009187905760773371,0.0006657902725198095,-0.03821636164263707,1678122729.168221
-3.585422880772967,-1.1332739992067218,0.13928488455712795,1678122755.5535612,0.13407529296874998,0.9074024291992187,8.872911352539061,0.04713795129440252,0.005060006071150552,0.0632500758893819,1678122729.17812
-3.585422880772967,-1.1332739992067218,0.13928488455712795,1678122755.6535902,0.5506663818359374,-1.0989385620117187,10.450690246582031,-0.030892668644919165,-0.0015978966540475428,-0.011052118523828838,1678122729.1882098
-3.585422880772967,-1.1332739992067218,0.13928488455712795,1678122755.7533114,-1.0797849487304687,1.7764976318359373,9.634267480468749,0.01611212459497939,-0.0033289513625990473,-0.02503371424674484,1678122729.198258
-4.346160335466266,-1.2708448553457856,0.13361011259257793,1678122755.868783,1.3287819213867187,1.7214309936523438,9.473855969238281,0.040213732460196494,0.0014647385995435807,-0.00905474770626941,1678122729.2081785
-4.346160335466266,-1.2708448553457856,0.13361011259257793,1678122755.9536695,0.8283937744140625,-2.020706201171875,9.823409411621093,-0.0021305288720633903,0.009321063815277333,0.007057376888709981,1678122729.2182107
-4.346160335466266,-1.2708448553457856,0.13361011259257793,1678122756.0535824,2.461239306640625,0.0383072265625,9.90241806640625,-0.0464721610218827,-0.003728425526110933,0.018508969576050704,1678122729.2281253
-4.346160335466266,-1.2708448553457856,0.13361011259257793,1678122756.1533492,0.6560112548828124,2.094926452636719,8.228871105957031,0.004660531907638666,0.0038615835806148956,-0.023036343429185407,1678122729.238277
-4.346160335466266,-1.2708448553457856,0.13361011259257793,1678122756.2533653,1.0726023437499999,0.3495534423828125,9.672574707031249,0.03129214280843105,0.01691107292200316,-0.03768372942462122,1678122729.2482698
-4.346160335466266,-1.2708448553457856,0.13361011259257793,1678122756.3552477,0.7781155395507812,0.3950432739257812,8.212111694335936,-0.015046860158947694,0.016644756812995237,0.027563717282320117,1678122729.2582142
-4.346160335466266,-1.2708448553457856,0.13361011259257793,1678122756.4545202,0.30406361083984373,3.1387983764648437,10.01015714111328,0.0006657902725198095,0.012383699068868458,-0.012383699068868458,1678122729.2682116
-4.346160335466266,-1.2708448553457856,0.13361011259257793,1678122756.5532234,-0.17477672119140625,1.7741034301757812,9.165003955078124,0.034088461953014244,0.0111852765783328,-0.029960562263391426,1678122729.2781537
-4.346160335466266,-1.2708448553457856,0.13361011259257793,1678122756.6533458,0.19632453613281248,-1.13006318359375,9.090783703613281,0.032490565298966705,0.010253170196805066,0.054062170128608526,1678122729.2882075
-4.346160335466266,-1.2708448553457856,0.13361011259257793,1678122756.7535145,-0.28969840087890625,0.3399766357421875,9.969455712890625,-0.03994741635118857,0.003994741635118857,-0.010652644360316953,1678122729.2982442
-5.0347082313965075,-1.422087809536606,0.06145260948687792,1678122756.8696816,-0.28490999755859375,-0.062249243164062495,10.319009155273436,0.021438446775137867,0.011052118523828838,-0.03781688747912518,1678122729.3082004
-5.0347082313965075,-1.422087809536606,0.06145260948687792,1678122756.9536,1.6328455322265625,0.033518823242187495,9.428366137695312,0.040080574405692536,0.009187905760773371,0.0042610577441267805,1678122729.318275
-5.0347082313965075,-1.422087809536606,0.06145260948687792,1678122757.0534174,0.5530605834960938,-1.8171990600585937,10.019733947753906,-0.03382214584400632,0.004660531907638666,0.0018642127630554665,1678122729.328186
-5.0347082313965075,-1.422087809536606,0.06145260948687792,1678122757.1535983,0.8595183959960937,1.6807295654296874,9.425971936035156,-0.0268979270098003,-0.0006657902725198095,-0.019041601794066554,1678122729.3383505
-5.0347082313965075,-1.422087809536606,0.06145260948687792,1678122757.2536492,1.1611878051757811,2.4109610717773435,8.090007409667969,0.04181162911424404,0.007856325215733753,0.009187905760773371,1678122729.3482513
-5.0347082313965075,-1.422087809536606,0.06145260948687792,1678122757.3547106,1.5753846923828123,-2.1787235107421874,8.930372192382812,0.00692421883420602,0.006524744670694133,-0.0035952674716069714,1678122729.35817
-5.0347082313965075,-1.422087809536606,0.06145260948687792,1678122757.4531696,0.20829554443359374,1.4245499877929686,8.530540515136718,-0.010918960469324876,-0.011052118523828838,0.006524744670694133,1678122729.368252
-5.0347082313965075,-1.422087809536606,0.06145260948687792,1678122757.5532465,1.0654197387695312,2.3295582153320313,9.9981861328125,0.023968449810713145,0.008122641324741676,-0.03129214280843105,1678122729.3781762
-5.0347082313965075,-1.422087809536606,0.06145260948687792,1678122757.653808,-0.9026140258789062,-0.10295067138671875,9.507374792480467,0.032490565298966705,0.011318434632836761,-0.013981595722916,1678122729.3882194
-5.0347082313965075,-1.422087809536606,0.06145260948687792,1678122757.7533362,2.0183119995117185,-1.2306196533203124,9.828197814941406,-0.0055926382891664,0.020506340393610132,0.06285060172587002,1678122729.3982403
-5.833871815004386,-1.6223637275397778,0.024195161648094654,1678122757.8697524,-0.689530078125,0.9888052856445312,9.660603698730467,-0.0195742340120824,0.015845808485971467,-0.017044230976507122,1678122729.4081717
-5.833871815004386,-1.6223637275397778,0.024195161648094654,1678122757.953344,0.7996633544921875,0.9840168823242187,11.221623181152344,0.03422162000751821,0.006524744670694133,-0.03488741028003802,1678122729.4182246
-5.833871815004386,-1.6223637275397778,0.024195161648094654,1678122758.053479,-0.24899697265624998,-0.5243301635742187,7.886500268554687,0.013715279613908078,0.017576863194522972,0.021172130666129944,1678122729.4281135
-5.833871815004386,-1.6223637275397778,0.024195161648094654,1678122758.1538198,-0.3064578125,1.1827356201171875,10.409988818359375,-0.033955303898510286,0.010120012142301104,0.003994741635118857,1678122729.438331
-5.833871815004386,-1.6223637275397778,0.024195161648094654,1678122758.253528,-0.143652099609375,2.6982652709960937,8.219294299316406,-0.004660531907638666,0.0027963191445832,-0.022104237047657675,1678122729.4482775
-5.833871815004386,-1.6223637275397778,0.024195161648094654,1678122758.3547113,1.0199299072265624,1.0223241088867188,9.069235888671875,0.053662695965096645,0.0033289513625990473,0.038615835806148954,1678122729.4582028
-5.833871815004386,-1.6223637275397778,0.024195161648094654,1678122758.4535084,0.5458779785156249,-2.789244934082031,10.031704956054687,-0.028362665609343887,0.0021305288720633903,-0.010785802414820914,1678122729.4682305
-5.833871815004386,-1.6223637275397778,0.024195161648094654,1678122758.5535707,-0.6919242797851562,2.231395947265625,9.65342109375,-0.001331580545039619,-0.008788431597261486,-0.008522115488253561,1678122729.478116
-5.833871815004386,-1.6223637275397778,0.024195161648094654,1678122758.6533165,0.37828386230468747,2.7461493041992187,9.3086560546875,0.040213732460196494,0.0073236929977179045,-0.012916331286884304,1678122729.488221
-5.833871815004386,-1.6223637275397778,0.024195161648094654,1678122758.7533696,-0.3447650390625,-1.4724340209960938,9.512163195800781,0.010785802414820914,0.007590009106725828,0.008122641324741676,1678122729.4982407
-6.685691082209814,-1.7205813354812562,0.12098521087318659,1678122758.870146,2.094926452636719,0.15322890625,9.737218151855469,-0.03036003642690331,0.0018642127630554665,0.04540689658585101,1678122729.5081732
-6.685691082209814,-1.7205813354812562,0.12098521087318659,1678122758.9536464,0.6655880615234374,1.2928688964843749,9.162609753417968,-0.001331580545039619,-0.0010652644360316951,-0.02530003035575276,1678122729.518219
-6.685691082209814,-1.7205813354812562,0.12098521087318659,1678122759.0535398,0.9792284790039062,-0.19871873779296872,9.955090502929687,0.026232136737280493,0.005858954398174323,-0.045939528803866855,1678122729.5281396
-6.685691082209814,-1.7205813354812562,0.12098521087318659,1678122759.1532996,0.9696516723632812,-0.689530078125,8.805873706054687,-0.010918960469324876,0.012916331286884304,0.034354778062022175,1678122729.5383093
-6.685691082209814,-1.7205813354812562,0.12098521087318659,1678122759.2535203,0.833182177734375,2.674323254394531,10.376469995117187,-0.010652644360316953,0.0001331580545039619,-0.0195742340120824,1678122729.5483184
-6.685691082209814,-1.7205813354812562,0.12098521087318659,1678122759.354963,-0.6248866333007812,2.77727392578125,8.583212951660157,0.01731054708551505,0.0029294771990871615,-0.03302319751698255,1678122729.5582201
-6.685691082209814,-1.7205813354812562,0.12098521087318659,1678122759.4532297,0.24899697265624998,0.16280571289062498,8.106766821289062,0.04380899993180347,0.005459480234662438,0.06484797254342944,1678122729.5682418
-6.685691082209814,-1.7205813354812562,0.12098521087318659,1678122759.553327,0.08379705810546874,-1.936909143066406,10.345345373535155,-0.04154531300523612,0.0038615835806148956,-0.007190534943213943,1678122729.5781622
-6.685691082209814,-1.7205813354812562,0.12098521087318659,1678122759.6543522,-0.3232172241210937,0.6200982299804687,10.249577307128906,0.0014647385995435807,-0.001331580545039619,-0.040879522732716306,1678122729.5882268
-6.685691082209814,-1.7205813354812562,0.12098521087318659,1678122759.7534704,1.120486376953125,1.2138602416992186,9.296685046386719,0.04074636467821234,0.006524744670694133,-0.01344896350490015,1678122729.5982845
-7.523786683508661,-1.8924690410494804,0.02255819458514452,1678122759.8680255,0.5243301635742187,-2.6815058593749996,10.47702646484375,0.003062635253591124,0.00972053797878922,0.00692421883420602,1678122729.6082091
-7.523786683508661,-1.8924690410494804,0.02255819458514452,1678122759.9533863,1.426944189453125,0.6655880615234374,9.26316622314453,-0.035819516661565756,0.008788431597261486,0.02423476591972107,1678122729.618242
-7.523786683508661,-1.8924690410494804,0.02255819458514452,1678122760.053561,-0.7445967163085937,1.85790048828125,9.368511096191405,0.02423476591972107,0.015046860158947694,-0.012383699068868458,1678122729.628163
-7.523786683508661,-1.8924690410494804,0.02255819458514452,1678122760.1535566,1.1109095703125,-0.26336218261718747,8.90643017578125,0.03222424918995878,0.012383699068868458,-0.02876213977285577,1678122729.6382942
-7.523786683508661,-1.8924690410494804,0.02255819458514452,1678122760.253347,1.0534487304687499,0.842758984375,8.530540515136718,-0.00972053797878922,0.0049268480166465905,0.019307917903074477,1678122729.6482642
-7.523786683508661,-1.8924690410494804,0.02255819458514452,1678122760.354749,0.7326257080078125,2.212242333984375,9.562441430664062,0.011717908796348646,0.0083889574337496,-0.026232136737280493,1678122729.6582034
-7.523786683508661,-1.8924690410494804,0.02255819458514452,1678122760.4537907,-0.48123453369140623,1.0175357055664063,9.583989245605467,0.023702133701705222,0.0001331580545039619,-0.03981425829668461,1678122729.6682458
-7.523786683508661,-1.8924690410494804,0.02255819458514452,1678122760.5533993,1.438915197753906,-0.8212111694335937,9.052476477050782,0.018642127630554665,0.011584750741844684,0.06831008196053245,1678122729.6781695
-7.523786683508661,-1.8924690410494804,0.02255819458514452,1678122760.6536193,0.11013327636718749,-0.09576806640624999,10.620678564453124,-0.04034689051470046,0.006791060779702058,-0.0049268480166465905,1678122729.688246
-7.523786683508661,-1.8924690410494804,0.02255819458514452,1678122760.753524,-0.1580173095703125,0.6560112548828124,10.263942517089843,0.024501082028728992,0.004127899689622819,-0.04620584491287478,1678122729.6981595
-8.420681624556892,-2.0132053098641336,0.09067292045801878,1678122760.871602,0.9624690673828125,1.0893617553710937,8.470685473632813,0.03688478109759745,0.017177389031011087,0.02090581455712202,1678122729.7081995
-8.420681624556892,-2.0132053098641336,0.09067292045801878,1678122760.9537854,-0.47884033203125,-1.6328455322265625,10.156203442382813,-0.024634240083232953,0.015446334322459582,0.01824265346704278,1678122729.7182508
-8.420681624556892,-2.0132053098641336,0.09067292045801878,1678122761.0538368,0.21068974609375,1.5586252807617187,9.394847314453125,-0.025699504519264647,-0.003062635253591124,-0.013582121559404116,1678122729.7281792
-8.420681624556892,-2.0132053098641336,0.09067292045801878,1678122761.1532345,1.0702081420898437,2.2290017456054687,9.344569079589844,0.05233111542005703,0.007590009106725828,0.015046860158947694,1678122729.738371
-8.420681624556892,-2.0132053098641336,0.09067292045801878,1678122761.253714,0.8738836059570312,-1.6998831787109374,8.659827404785156,0.01744370514001901,0.008788431597261486,-0.01611212459497939,1678122729.7483747
-8.420681624556892,-2.0132053098641336,0.09067292045801878,1678122761.354747,0.8451531860351562,1.2904746948242187,9.138667736816405,-0.010918960469324876,-0.002530003035575276,0.010652644360316953,1678122729.7582467
-8.420681624556892,-2.0132053098641336,0.09067292045801878,1678122761.45387,0.8044517578125,2.693476867675781,9.402029919433593,0.02503371424674484,0.009454221869781294,-0.028495823663847848,1678122729.768281
-8.420681624556892,-2.0132053098641336,0.09067292045801878,1678122761.5534647,0.3591302490234375,0.2753331909179687,9.794678991699218,0.029028455881863695,0.002530003035575276,-0.002530003035575276,1678122729.7782524
-8.420681624556892,-2.0132053098641336,0.09067292045801878,1678122761.653483,1.0127473022460938,-0.7230489013671875,8.951920007324219,-0.019174759848570515,0.009321063815277333,0.05060006071150552,1678122729.7882922
-8.420681624556892,-2.0132053098641336,0.09067292045801878,1678122761.753944,0.2537853759765625,1.0893617553710937,9.938331091308592,-0.028362665609343887,0.011318434632836761,-0.013582121559404116,1678122729.7984083
-9.315544920507818,-2.132230884861201,0.10291432030498981,1678122761.8695982,0.4429273071289062,0.2657563842773437,9.969455712890625,0.028096349500335963,0.010785802414820914,-0.04127899689622819,1678122729.8083448
-9.315544920507818,-2.132230884861201,0.10291432030498981,1678122761.95348,-0.0383072265625,-0.33039982910156246,8.590395556640624,0.002530003035575276,0.01597896654047543,0.017177389031011087,1678122729.8183968
-9.315544920507818,-2.132230884861201,0.10291432030498981,1678122762.0540328,0.35194764404296874,1.3742717529296875,10.409988818359375,-0.0318247750264469,0.00972053797878922,-0.0005326322180158476,1678122729.8282983
-9.315544920507818,-2.132230884861201,0.10291432030498981,1678122762.1537309,-0.29448680419921874,3.0454245117187497,8.851363537597656,-0.0,-0.001731054708551505,-0.023702133701705222,1678122729.8388333
-9.315544920507818,-2.132230884861201,0.10291432030498981,1678122762.2536447,0.4477157104492187,1.2521674682617188,8.40125362548828,0.054727960401128345,0.010519486305812991,0.033289513625990474,1678122729.8483884
-9.315544920507818,-2.132230884861201,0.10291432030498981,1678122762.354813,0.3902548706054687,-2.501940734863281,10.32379755859375,-0.016644756812995237,0.009321063815277333,-0.013715279613908078,1678122729.858303
-9.315544920507818,-2.132230884861201,0.10291432030498981,1678122762.453448,0.4213794921875,1.5705962890624998,9.332598071289063,0.013049489341388266,-0.005992112452678286,-0.016644756812995237,1678122729.8683946
-9.315544920507818,-2.132230884861201,0.10291432030498981,1678122762.553577,1.1827356201171875,1.1037269653320312,9.437942944335937,0.03701793915210141,-0.0010652644360316951,-0.013315805450396189,1678122729.8783572
-9.315544920507818,-2.132230884861201,0.10291432030498981,1678122762.6536665,-0.0718260498046875,-1.618480322265625,10.158597644042969,0.005060006071150552,0.015712650431467506,0.0023968449810713144,1678122729.8883867
-9.315544920507818,-2.132230884861201,0.10291432030498981,1678122762.7536159,1.4724340209960938,-0.2059013427734375,9.672574707031249,-0.029694246154383503,0.0018642127630554665,0.026232136737280493,1678122729.8982968
-10.220038489671424,-2.245563162956387,0.24831992108374834,1678122762.8742216,-0.0526724365234375,1.9847931762695312,8.927977990722656,0.004527373853134705,0.008255799379245638,-0.015446334322459582,1678122729.9083326
-10.220038489671424,-2.245563162956387,0.24831992108374834,1678122762.9544475,0.59376201171875,1.0678139404296874,9.670180505371093,0.04141215495073215,0.0073236929977179045,-0.029694246154383503,1678122729.9184244
-10.220038489671424,-2.245563162956387,0.24831992108374834,1678122763.0538785,1.3766659545898436,0.4165910888671875,8.56166513671875,-0.009321063815277333,0.011984224905356573,0.0251668723012488,1678122729.9283292
-10.220038489671424,-2.245563162956387,0.24831992108374834,1678122763.1532302,0.05746083984375,2.1643583007812497,9.90241806640625,-0.005326322180158476,0.012383699068868458,-0.007989483270237714,1678122729.9401891
-10.220038489671424,-2.245563162956387,0.24831992108374834,1678122763.2541592,0.9457096557617187,1.9991583862304687,9.394847314453125,0.033156355571486516,0.0018642127630554665,-0.026498452846288417,1678122729.9483602
-10.220038489671424,-2.245563162956387,0.24831992108374834,1678122763.3551953,1.3192051147460937,-1.8746598999023436,9.03332286376953,0.030626352535911235,0.011451592687340723,0.0503337446024976,1678122729.958374
-10.220038489671424,-2.245563162956387,0.24831992108374834,1678122763.4538572,0.8643067993164062,-0.7493851196289062,11.233594189453123,-0.03209109113545482,0.0049268480166465905,-0.011052118523828838,1678122729.9684074
-10.220038489671424,-2.245563162956387,0.24831992108374834,1678122763.5534477,-0.3806780639648437,0.7254431030273437,9.674968908691406,0.02330265953819333,0.01251685712337242,-0.03568635860706179,1678122729.9783192
-10.220038489671424,-2.245563162956387,0.24831992108374834,1678122763.6535559,0.8164227661132812,1.0223241088867188,8.90643017578125,0.038482677751644996,0.010652644360316953,0.011584750741844684,1678122729.988374
-10.220038489671424,-2.245563162956387,0.24831992108374834,1678122763.7534587,-0.04548983154296875,-1.6041151123046875,9.911994873046874,-0.026232136737280493,0.002530003035575276,0.010918960469324876,1678122729.9983885
-11.058219545171596,-2.424137833993882,0.19199825823307037,1678122763.8706224,0.7685387329101562,2.3870190551757813,9.131485131835937,-0.03275688140797463,-0.0031957933080950856,0.001731054708551505,1678122730.0083427
-11.058219545171596,-2.424137833993882,0.19199825823307037,1678122763.9536748,0.63206923828125,2.8945898071289062,8.947131604003905,0.047004793239898555,0.01478054404993977,0.003062635253591124,1678122730.0183897
-11.058219545171596,-2.424137833993882,0.19199825823307037,1678122764.0532722,0.277727392578125,-1.9009961181640624,8.808267907714843,0.008255799379245638,0.005725796343670361,-0.012916331286884304,1678122730.028307
-11.058219545171596,-2.424137833993882,0.19199825823307037,1678122764.153336,0.469263525390625,2.1499930908203124,9.126696728515624,-0.019174759848570515,0.0005326322180158476,0.005326322180158476,1678122730.0416918
-11.058219545171596,-2.424137833993882,0.19199825823307037,1678122764.2542868,0.6775590698242188,3.0789433349609374,9.636661682128906,0.031025826699423126,0.00692421883420602,-0.021305288720633905,1678122730.0485082
-11.058219545171596,-2.424137833993882,0.19199825823307037,1678122764.3548412,0.612915625,0.09816226806640624,10.218452685546874,0.02316950148368937,0.001331580545039619,-0.013182647395892227,1678122730.0583756
-11.058219545171596,-2.424137833993882,0.19199825823307037,1678122764.453975,0.9744400756835937,-0.39743747558593745,9.296685046386719,-0.014913702104443732,0.008788431597261486,0.05885586009075116,1678122730.0684626
-11.058219545171596,-2.424137833993882,0.19199825823307037,1678122764.5533023,-0.047884033203124995,0.7948749511718749,9.919177478027343,-0.024634240083232953,0.0049268480166465905,-0.019307917903074477,1678122730.0782769
-11.058219545171596,-2.424137833993882,0.19199825823307037,1678122764.653811,0.507570751953125,0.38786066894531246,10.577582934570312,0.021172130666129944,0.007856325215733753,-0.03555320055255783,1678122730.0883517
-11.058219545171596,-2.424137833993882,0.19199825823307037,1678122764.7543845,0.7541735229492187,0.05746083984375,7.939172705078125,0.00346210941710301,0.014247911831923924,0.0223705531566656,1678122730.0984247
-11.884853505296633,-2.5733839659951627,0.10854361206293106,1678122764.8704748,0.062249243164062495,0.967257470703125,10.244788903808594,-0.0268979270098003,0.012783173232380343,-0.005193164125654515,1678122730.1083117
-11.884853505296633,-2.5733839659951627,0.10854361206293106,1678122764.9534774,0.24899697265624998,2.365471240234375,8.93755479736328,-0.009853696033293181,-0.0014647385995435807,-0.029294771990871618,1678122730.1183898
-11.884853505296633,-2.5733839659951627,0.10854361206293106,1678122765.0534997,0.7900865478515624,0.8690952026367187,8.966285217285156,0.047004793239898555,0.009187905760773371,0.03954794218767669,1678122730.128352
-11.884853505296633,-2.5733839659951627,0.10854361206293106,1678122765.1535578,0.45489831542968745,-1.8555062866210936,10.517727893066406,-0.02769687533682408,0.009986854087797143,-0.02343581759269729,1678122730.1433525
-11.884853505296633,-2.5733839659951627,0.10854361206293106,1678122765.2534163,0.5195417602539062,1.7573440185546874,9.296685046386719,0.008122641324741676,-0.002663161090079238,-0.011052118523828838,1678122730.1489222
-11.884853505296633,-2.5733839659951627,0.10854361206293106,1678122765.3547277,0.9241618408203125,1.6017209106445311,9.17458076171875,0.02942793004537558,0.0029294771990871615,-0.0038615835806148956,1678122730.1583726
-11.884853505296633,-2.5733839659951627,0.10854361206293106,1678122765.4534655,-0.679953271484375,-1.956062756347656,9.955090502929687,0.008255799379245638,0.0029294771990871615,-0.0018642127630554665,1678122730.1684215
-11.884853505296633,-2.5733839659951627,0.10854361206293106,1678122765.5535135,1.9488801513671874,0.21068974609375,9.3852705078125,-0.0430100516047797,0.0014647385995435807,0.023968449810713145,1678122730.178152
-11.884853505296633,-2.5733839659951627,0.10854361206293106,1678122765.653261,-0.031124621582031248,1.7453730102539062,9.145850341796875,0.012916331286884304,0.007057376888709981,-0.017976337358034857,1678122730.1883082
-11.884853505296633,-2.5733839659951627,0.10854361206293106,1678122765.7533996,0.8595183959960937,0.143652099609375,9.07163009033203,0.03368898778950236,0.005060006071150552,-0.04141215495073215,1678122730.1984131
-12.778280369413551,-2.8152654911391437,0.07004645094275475,1678122765.8692222,1.2904746948242187,0.5339069702148437,8.44674345703125,-0.017843179303530896,0.005459480234662438,0.02024002428460221,1678122730.2083588
-12.778280369413551,-2.8152654911391437,0.07004645094275475,1678122765.9533951,-0.277727392578125,2.683900061035156,9.873687646484374,-0.0005326322180158476,0.013182647395892227,-0.02170476288414579,1678122730.2183824
-12.778280369413551,-2.8152654911391437,0.07004645094275475,1678122766.0532975,0.34237083740234375,0.9528922607421875,9.830592016601562,0.02316950148368937,-0.00346210941710301,-0.03289003946247859,1678122730.2283955
-12.778280369413551,-2.8152654911391437,0.07004645094275475,1678122766.1533077,1.0558429321289062,-0.8259995727539062,9.157821350097656,0.01691107292200316,0.01890844373956259,0.05925533425426305,1678122730.2453582
-12.778280369413551,-2.8152654911391437,0.07004645094275475,1678122766.253704,0.55545478515625,-0.1580173095703125,10.369287390136718,-0.04048004856920442,0.002530003035575276,-0.01265001517787638,1678122730.2498827
-12.778280369413551,-2.8152654911391437,0.07004645094275475,1678122766.3548927,-0.02633621826171875,-0.22505495605468748,10.156203442382813,0.023835291756209184,0.013182647395892227,-0.02956108809987954,1678122730.2583685
-12.778280369413551,-2.8152654911391437,0.07004645094275475,1678122766.4534342,0.8475473876953125,0.8930372192382812,9.038111267089842,0.0318247750264469,0.010652644360316953,0.011851066850852611,1678122730.2683666
-12.778280369413551,-2.8152654911391437,0.07004645094275475,1678122766.5533137,0.47644613037109373,-0.9457096557617187,10.120290417480469,-0.03688478109759745,0.015712650431467506,0.007190534943213943,1678122730.2783678
-12.778280369413551,-2.8152654911391437,0.07004645094275475,1678122766.6542816,0.33758243408203126,2.5043349365234375,9.004592443847656,-0.019973708175594285,-0.0049268480166465905,-0.017177389031011087,1678122730.2882679
-12.778280369413551,-2.8152654911391437,0.07004645094275475,1678122766.7553902,0.25139117431640623,2.6001030029296874,8.719682446289061,0.05845638592723928,0.011717908796348646,0.016245282649483352,1678122730.298334
-13.68572854012018,-2.9606931540183723,0.11219216231256723,1678122766.869519,0.5817910034179687,-1.8171990600585937,9.5001921875,0.011318434632836761,0.008788431597261486,-0.017843179303530896,1678122730.3082483
-13.68572854012018,-2.9606931540183723,0.11219216231256723,1678122766.9533386,0.6871358764648438,1.89620771484375,9.241618408203124,0.0019973708175594286,-0.004793689962142629,0.0049268480166465905,1678122730.3183107
-13.68572854012018,-2.9606931540183723,0.11219216231256723,1678122767.0535457,0.4261678955078125,2.1906945190429687,9.718064538574218,0.03142530086293501,0.0021305288720633903,-0.032490565298966705,1678122730.3282683
-13.68572854012018,-2.9606931540183723,0.11219216231256723,1678122767.1534786,0.2561795776367187,-0.8786720092773437,10.043675964355469,0.02876213977285577,0.003728425526110933,-0.0083889574337496,1678122730.3474789
-13.68572854012018,-2.9606931540183723,0.11219216231256723,1678122767.2539418,1.8195932617187498,-1.3335703247070312,8.920795385742187,-0.024900556192240877,0.014381069886427886,0.05512743456464023,1678122730.3517482
-13.68572854012018,-2.9606931540183723,0.11219216231256723,1678122767.3547895,0.5315127685546874,1.2689268798828124,9.208099584960937,-0.0195742340120824,0.009853696033293181,-0.019973708175594285,1678122730.3583765
-13.68572854012018,-2.9606931540183723,0.11219216231256723,1678122767.4533603,0.5817910034179687,0.47644613037109373,10.510545288085936,0.030093720317895388,0.009587379924285258,-0.040879522732716306,1678122730.3683808
-13.68572854012018,-2.9606931540183723,0.11219216231256723,1678122767.5535378,0.5482721801757812,0.023942016601562498,8.01818135986328,-0.008655273542757524,0.015712650431467506,0.02956108809987954,1678122730.3783343
-13.68572854012018,-2.9606931540183723,0.11219216231256723,1678122767.6532419,-0.08379705810546874,2.288856787109375,10.512939489746094,-0.027031085064304263,0.012916331286884304,-0.014647385995435809,1678122730.388292
-13.68572854012018,-2.9606931540183723,0.11219216231256723,1678122767.7538307,0.0909796630859375,2.741360900878906,7.673416320800781,0.014913702104443732,0.005858954398174323,-0.023835291756209184,1678122730.3983555
-14.59752757725073,-3.126146453432739,0.2673238134011626,1678122767.8718617,0.5363011718749999,0.08379705810546874,9.09796630859375,0.05179848320204118,0.014913702104443732,0.043542683822795546,1678122730.4082901
-14.59752757725073,-3.126146453432739,0.2673238134011626,1678122767.9534662,0.6368576416015624,-1.687912170410156,10.474632263183594,-0.03275688140797463,0.0,-0.014381069886427886,1678122730.418411
-14.59752757725073,-3.126146453432739,0.2673238134011626,1678122768.0533981,-0.06703764648437499,0.8978256225585937,10.050858569335936,0.014913702104443732,0.004527373853134705,-0.02530003035575276,1678122730.428466
-14.59752757725073,-3.126146453432739,0.2673238134011626,1678122768.1534476,1.39821376953125,1.0941501586914062,9.272743029785156,0.036618464988589526,0.01251685712337242,-0.011451592687340723,1678122730.449284
-14.59752757725073,-3.126146453432739,0.2673238134011626,1678122768.253428,-0.26815058593749996,-1.7621324218749999,10.319009155273436,-0.015313176267955617,0.015046860158947694,0.010253170196805066,1678122730.4494097
-14.59752757725073,-3.126146453432739,0.2673238134011626,1678122768.3549488,1.4724340209960938,0.8259995727539062,9.583989245605467,-0.024900556192240877,-0.0003994741635118857,0.006791060779702058,1678122730.4584076
-14.59752757725073,-3.126146453432739,0.2673238134011626,1678122768.4534438,-0.3806780639648437,3.066972326660156,8.530540515136718,0.028895297827359733,0.010652644360316953,-0.008655273542757524,1678122730.468403
-14.59752757725073,-3.126146453432739,0.2673238134011626,1678122768.5541224,0.6536170532226562,-0.32082302246093747,9.09796630859375,0.012250541014364496,0.004394215798630743,-0.024634240083232953,1678122730.478729
-14.59752757725073,-3.126146453432739,0.2673238134011626,1678122768.6533608,0.8714894042968749,2.473210314941406,9.006986645507812,-0.0251668723012488,0.002663161090079238,0.026498452846288417,1678122730.4884079
-14.59752757725073,-3.126146453432739,0.2673238134011626,1678122768.7534604,0.7015010864257812,2.9544448486328125,8.90643017578125,0.014114753777419962,0.005725796343670361,-0.01944107595757844,1678122730.4985077
-15.434560439025518,-3.2207743786275387,0.11606818716973066,1678122768.87053,0.2753331909179687,-0.229843359375,10.347739575195313,0.029294771990871618,0.008122641324741676,-0.014514227940931847,1678122730.5083745
-15.434560439025518,-3.2207743786275387,0.11606818716973066,1678122768.9534156,2.3295582153320313,-1.675941162109375,9.287108239746093,0.005459480234662438,0.015845808485971467,0.05526059261914419,1678122730.5183992
-15.434560439025518,-3.2207743786275387,0.11606818716973066,1678122769.0532844,0.55545478515625,0.12210428466796874,10.342951171874999,-0.028895297827359733,0.0019973708175594286,-0.009587379924285258,1678122730.5287642
-15.434560439025518,-3.2207743786275387,0.11606818716973066,1678122769.153416,0.15083470458984374,0.5386953735351562,10.160991845703125,0.02343581759269729,0.009187905760773371,-0.04620584491287478,1678122730.540233
-15.434560439025518,-3.2207743786275387,0.11606818716973066,1678122769.2535357,1.3096283081054687,0.05985504150390625,8.755595471191405,0.013582121559404116,0.009321063815277333,0.0083889574337496,1678122730.5484626
-15.434560439025518,-3.2207743786275387,0.11606818716973066,1678122769.3545716,0.02154781494140625,0.41898529052734373,10.005368737792969,-0.026631610900792378,0.014913702104443732,-0.0010652644360316951,1678122730.5584059
-15.434560439025518,-3.2207743786275387,0.11606818716973066,1678122769.453309,-0.18435352783203124,3.323151904296875,8.973467822265624,-0.0066579027251980945,0.0022636869265673524,-0.014114753777419962,1678122730.5684426
-15.434560439025518,-3.2207743786275387,0.11606818716973066,1678122769.5537782,0.8116343627929687,1.3934253662109375,8.817844714355468,0.059388492308767006,0.004127899689622819,0.034088461953014244,1678122730.5784962
-15.434560439025518,-3.2207743786275387,0.11606818716973066,1678122769.6534991,0.1771709228515625,-2.300827795410156,10.007762939453125,-0.034354778062022175,0.010785802414820914,-0.016644756812995237,1678122730.5883853
-15.434560439025518,-3.2207743786275387,0.11606818716973066,1678122769.7531028,0.4644751220703125,1.7022773803710936,8.93755479736328,0.002530003035575276,0.0011984224905356572,-0.0007989483270237714,1678122730.5984552
-16.409547694434877,-3.360473257023841,0.13155555445700884,1678122769.8684049,1.0486603271484374,1.8219874633789062,10.050858569335936,0.03874899386065292,0.007989483270237714,-0.011052118523828838,1678122730.6084092
-16.409547694434877,-3.360473257023841,0.13155555445700884,1678122769.9533598,-0.354341845703125,-1.838746875,9.809044201660155,-0.004660531907638666,0.011584750741844684,-0.003728425526110933,1678122730.618441
-16.409547694434877,-3.360473257023841,0.13155555445700884,1678122770.053403,1.3048399047851562,0.33758243408203126,9.658209497070311,-0.03874899386065292,0.003062635253591124,0.03528688444354991,1678122730.628318
-16.409547694434877,-3.360473257023841,0.13155555445700884,1678122770.1532938,-0.86191259765625,1.5227122558593749,8.128314636230469,0.006791060779702058,0.011318434632836761,-0.005992112452678286,1678122730.6427684
-16.409547694434877,-3.360473257023841,0.13155555445700884,1678122770.2533906,0.7254431030273437,0.8259995727539062,9.70369932861328,0.031558458917438977,0.0049268480166465905,-0.03981425829668461,1678122730.6486068
-16.409547694434877,-3.360473257023841,0.13155555445700884,1678122770.3548515,1.4772224243164063,0.5530605834960938,8.473079675292968,-0.0021305288720633903,0.0021305288720633903,0.02862898171835181,1678122730.6584382
-16.409547694434877,-3.360473257023841,0.13155555445700884,1678122770.4535415,0.622492431640625,2.920926025390625,10.63025537109375,0.001331580545039619,-0.0031957933080950856,-0.014913702104443732,1678122730.668462
-16.409547694434877,-3.360473257023841,0.13155555445700884,1678122770.5533698,0.05027823486328125,1.1468225952148436,9.107543115234375,0.030493194481407273,-0.0066579027251980945,-0.031558458917438977,1678122730.6783369
-16.409547694434877,-3.360473257023841,0.13155555445700884,1678122770.65335,1.7357962036132812,-0.737414111328125,9.892841259765625,0.014247911831923924,0.005459480234662438,0.055793224837160045,1678122730.6883535
-16.409547694434877,-3.360473257023841,0.13155555445700884,1678122770.7535362,1.1468225952148436,-0.076614453125,10.857704528808593,-0.03821636164263707,0.0055926382891664,-0.019973708175594285,1678122730.6984432
-17.4129360432853,-3.5528504787944257,0.27955861296504736,1678122770.8723998,0.44532150878906246,0.5961562133789062,9.94072529296875,0.021438446775137867,0.006125270507182248,-0.02876213977285577,1678122730.7083552
-17.4129360432853,-3.5528504787944257,0.27955861296504736,1678122770.9537036,0.9313444458007812,0.7733271362304687,9.411606726074218,0.016511598758491276,0.017044230976507122,0.010652644360316953,1678122730.718417
-17.4129360432853,-3.5528504787944257,0.27955861296504736,1678122771.0534482,-0.21068974609375,0.062249243164062495,9.598354455566406,-0.040080574405692536,0.00625842856168621,-0.005060006071150552,1678122730.7284236
-17.4129360432853,-3.5528504787944257,0.27955861296504736,1678122771.1535172,0.354341845703125,2.8227637573242186,8.8489693359375,-0.024501082028728992,-0.0019973708175594286,-0.018375811521546742,1678122730.7457309
-17.4129360432853,-3.5528504787944257,0.27955861296504736,1678122771.2536802,0.2753331909179687,2.1068974609374997,8.190563879394531,0.051265850984025335,0.007456851052221866,0.03701793915210141,1678122730.7513926
-17.4129360432853,-3.5528504787944257,0.27955861296504736,1678122771.354547,0.39264907226562495,-2.032677209472656,9.591171850585937,-0.018642127630554665,0.00972053797878922,-0.028096349500335963,1678122730.7584665
-17.4129360432853,-3.5528504787944257,0.27955861296504736,1678122771.4534745,0.45968671875,1.4987702392578124,9.035717065429687,0.0023968449810713144,-0.0022636869265673524,0.0,1678122730.768588
-17.4129360432853,-3.5528504787944257,0.27955861296504736,1678122771.5535285,1.5083470458984374,1.4341267944335936,10.0748005859375,0.0318247750264469,0.0029294771990871615,-0.016245282649483352,1678122730.778332
-17.4129360432853,-3.5528504787944257,0.27955861296504736,1678122771.6535974,-0.033518823242187495,-2.1787235107421874,10.13226142578125,0.0033289513625990473,0.009454221869781294,-0.022104237047657675,1678122730.7883778
-17.4129360432853,-3.5528504787944257,0.27955861296504736,1678122771.7533047,1.6017209106445311,-0.12449848632812499,9.112331518554686,-0.03648530693408556,0.00692421883420602,0.040879522732716306,1678122730.7983003
-18.3852743266616,-3.720583414658904,0.28040781524032354,1678122771.8698056,-0.20350714111328125,1.8243816650390623,9.411606726074218,-0.003994741635118857,0.018508969576050704,-0.01744370514001901,1678122730.808371
-18.3852743266616,-3.720583414658904,0.28040781524032354,1678122771.9531088,0.8595183959960937,-0.5027823486328125,9.402029919433593,0.030892668644919165,0.010652644360316953,-0.04034689051470046,1678122730.8184502
-18.3852743266616,-3.720583414658904,0.28040781524032354,1678122772.0533693,0.852335791015625,0.023942016601562498,8.389282617187499,-0.03036003642690331,0.0014647385995435807,0.015712650431467506,1678122730.828432
-18.3852743266616,-3.720583414658904,0.28040781524032354,1678122772.1537495,0.0526724365234375,2.1787235107421874,9.775525378417969,-0.0042610577441267805,0.008921589651765448,-0.013182647395892227,1678122730.8489459
-18.3852743266616,-3.720583414658904,0.28040781524032354,1678122772.2532618,0.5722141967773438,1.209071838378906,8.978256225585938,0.03195793308095086,0.0,-0.02676476895529634,1678122730.8490903
-18.3852743266616,-3.720583414658904,0.28040781524032354,1678122772.3549075,1.6136919189453125,-2.2457611572265623,8.635885388183594,0.0006657902725198095,0.012383699068868458,0.05925533425426305,1678122730.8584535
-18.3852743266616,-3.720583414658904,0.28040781524032354,1678122772.4536192,0.316034619140625,-0.26815058593749996,10.785878479003905,-0.0318247750264469,-0.0031957933080950856,-0.0167779148674992,1678122730.86859
-18.3852743266616,-3.720583414658904,0.28040781524032354,1678122772.5532627,0.35673604736328124,0.1197100830078125,9.332598071289063,0.023968449810713145,0.013981595722916,-0.021172130666129944,1678122730.8784375
-18.3852743266616,-3.720583414658904,0.28040781524032354,1678122772.6531885,0.737414111328125,-0.03591302490234375,9.969455712890625,0.027563717282320117,0.007456851052221866,0.006524744670694133,1678122730.8884797
-18.3852743266616,-3.720583414658904,0.28040781524032354,1678122772.7531593,0.1867477294921875,1.1013327636718748,9.873687646484374,-0.029694246154383503,0.01478054404993977,-0.0022636869265673524,1678122730.8985107
-19.39312042243546,-3.993692542426288,0.13930165488272905,1678122772.8740332,1.2042834350585936,3.4739866088867184,8.777143286132812,0.0038615835806148956,0.0003994741635118857,-0.019174759848570515,1678122730.908491
-19.39312042243546,-3.993692542426288,0.13930165488272905,1678122772.953577,0.3399766357421875,1.8411410766601561,8.815450512695312,0.0587227020362472,0.017710021249026934,0.027031085064304263,1678122730.9184887
-19.39312042243546,-3.993692542426288,0.13930165488272905,1678122773.0531747,-0.15083470458984374,-2.0183119995117185,9.598354455566406,-0.011584750741844684,0.0111852765783328,-0.014913702104443732,1678122730.9284348
-19.39312042243546,-3.993692542426288,0.13930165488272905,1678122773.153192,0.8092401611328125,1.5035586425781249,9.277531433105468,0.007989483270237714,-0.0003994741635118857,0.013182647395892227,1678122730.941561
-19.39312042243546,-3.993692542426288,0.13930165488272905,1678122773.2534668,1.5155296508789062,1.6304513305664061,9.765948571777344,0.031691616971942935,0.007590009106725828,-0.018375811521546742,1678122730.9489198
-19.39312042243546,-3.993692542426288,0.13930165488272905,1678122773.3547366,0.3232172241210937,-1.3958195678710936,10.237606298828124,0.009454221869781294,0.00905474770626941,-0.014114753777419962,1678122730.9584618
-19.39312042243546,-3.993692542426288,0.13930165488272905,1678122773.4532363,1.3718775512695311,-0.6823474731445313,9.222464794921875,-0.029827404208887465,0.007190534943213943,0.04793689962142629,1678122730.968509
-19.39312042243546,-3.993692542426288,0.13930165488272905,1678122773.5531354,-0.2753331909179687,1.6448165405273436,8.973467822265624,-0.0011984224905356572,0.00972053797878922,-0.009187905760773371,1678122730.9783618
-19.39312042243546,-3.993692542426288,0.13930165488272905,1678122773.6533577,0.9648632690429687,0.7972691528320313,9.524134204101562,0.030892668644919165,0.0029294771990871615,-0.03701793915210141,1678122730.9884262
-19.39312042243546,-3.993692542426288,0.13930165488272905,1678122773.7536435,0.47165772705078124,0.40940848388671874,8.245630517578125,-0.005858954398174323,0.008122641324741676,0.02330265953819333,1678122730.9983995
-20.40930204844335,-4.08751811273396,0.2893740562722087,1678122773.8694608,-0.5722141967773438,2.3247698120117186,10.309432348632813,0.0027963191445832,0.0019973708175594286,-0.023835291756209184,1678122731.0084438
-20.40930204844335,-4.08751811273396,0.2893740562722087,1678122773.9531164,-0.09337386474609374,1.0582371337890624,9.145850341796875,0.03768372942462122,0.007989483270237714,-0.026498452846288417,1678122731.018529
-20.40930204844335,-4.08751811273396,0.2893740562722087,1678122774.0538504,0.6919242797851562,-1.189918225097656,9.449913952636718,0.02942793004537558,0.008522115488253561,0.060187440635790776,1678122731.0284643
-20.40930204844335,-4.08751811273396,0.2893740562722087,1678122774.1534994,-0.14125789794921875,-1.1180921752929687,10.275913525390624,-0.029694246154383503,-0.001331580545039619,-0.014247911831923924,1678122731.0459476
-20.40930204844335,-4.08751811273396,0.2893740562722087,1678122774.2535233,0.2825157958984375,0.967257470703125,10.129867224121092,0.031025826699423126,0.0018642127630554665,-0.02862898171835181,1678122731.0524466
-20.40930204844335,-4.08751811273396,0.2893740562722087,1678122774.354923,1.3215993164062498,-0.38786066894531246,8.67658681640625,0.04061320662370838,0.01038632825130903,-0.0006657902725198095,1678122731.0584974
-20.40930204844335,-4.08751811273396,0.2893740562722087,1678122774.4535394,0.4860229370117187,-0.22744915771484372,10.204087475585936,-0.024101607865217107,0.0005326322180158476,-0.00625842856168621,1678122731.0685296
-20.40930204844335,-4.08751811273396,0.2893740562722087,1678122774.5533462,1.5897499023437498,2.770091320800781,8.951920007324219,-0.01265001517787638,-0.0031957933080950856,-0.004127899689622819,1678122731.0783682
-20.40930204844335,-4.08751811273396,0.2893740562722087,1678122774.6534998,0.7637503295898437,2.549824768066406,8.86094034423828,0.05486111845563231,0.005326322180158476,0.01611212459497939,1678122731.0884237
-20.40930204844335,-4.08751811273396,0.2893740562722087,1678122774.7533371,-0.16041151123046873,-1.5897499023437498,9.574412438964844,-0.00905474770626941,0.010918960469324876,-0.02250371121116956,1678122731.098435
-21.407003943924792,-4.295985071454197,0.25707026198506355,1678122774.8725007,0.9097966308593749,2.1452046874999997,9.131485131835937,-0.0018642127630554665,0.005459480234662438,0.011717908796348646,1678122731.108506
-21.407003943924792,-4.295985071454197,0.25707026198506355,1678122774.9535706,1.1827356201171875,2.1164742675781247,9.414000927734374,0.037550571370117254,0.012117382959860534,-0.0031957933080950856,1678122731.1184812
-21.407003943924792,-4.295985071454197,0.25707026198506355,1678122775.053514,-1.3239935180664062,-1.7908628417968748,9.90241806640625,0.019174759848570515,0.005858954398174323,-0.012383699068868458,1678122731.1284423
-21.407003943924792,-4.295985071454197,0.25707026198506355,1678122775.1532674,1.649604943847656,0.7709329345703124,9.715670336914062,-0.03621899082507764,0.007989483270237714,0.04660531907638666,1678122731.1417253
-21.407003943924792,-4.295985071454197,0.25707026198506355,1678122775.2532585,-0.1388636962890625,1.1037269653320312,8.889670764160156,0.0022636869265673524,0.009853696033293181,-0.01478054404993977,1678122731.1486518
-21.407003943924792,-4.295985071454197,0.25707026198506355,1678122775.354797,1.024718310546875,0.6655880615234374,9.785102185058593,0.03728425526110933,0.007456851052221866,-0.036751623043093484,1678122731.1584954
-21.407003943924792,-4.295985071454197,0.25707026198506355,1678122775.4534392,1.2306196533203124,0.28730419921875,8.169016064453125,-0.008255799379245638,0.007057376888709981,0.02436792397422503,1678122731.1684465
-21.407003943924792,-4.295985071454197,0.25707026198506355,1678122775.5532262,-0.25139117431640623,3.0119056884765625,9.751583361816406,-0.0066579027251980945,0.0021305288720633903,-0.02037318233910617,1678122731.1783612
-21.407003943924792,-4.295985071454197,0.25707026198506355,1678122775.653224,-0.06464344482421874,1.8004396484374998,9.334992272949219,0.02716424311880823,-0.0035952674716069714,-0.023835291756209184,1678122731.188401
-21.407003943924792,-4.295985071454197,0.25707026198506355,1678122775.7533712,0.9217676391601562,-0.39983167724609375,8.781931689453124,0.026232136737280493,0.010918960469324876,0.05179848320204118,1678122731.1984427
-22.432156791794114,-4.4255406484007835,0.2521969573572278,1678122775.8691673,0.3016694091796875,-0.05985504150390625,10.670956799316405,-0.03475425222553406,0.0003994741635118857,-0.019041601794066554,1678122731.2084455
-22.432156791794114,-4.4255406484007835,0.2521969573572278,1678122775.9533405,-0.26815058593749996,0.00718260498046875,9.732429748535155,0.024900556192240877,0.0001331580545039619,-0.015712650431467506,1678122731.2185981
-22.432156791794114,-4.4255406484007835,0.2521969573572278,1678122776.0534158,1.2761094848632812,0.3280056274414062,10.194510668945313,0.023702133701705222,0.014247911831923924,0.009986854087797143,1678122731.2284548
-22.432156791794114,-4.4255406484007835,0.2521969573572278,1678122776.1534007,0.4165910888671875,-1.218648645019531,9.07163009033203,-0.03621899082507764,0.012916331286884304,-0.014913702104443732,1678122731.2448442
-22.432156791794114,-4.4255406484007835,0.2521969573572278,1678122776.253473,1.8722656982421875,2.1883003173828124,10.007762939453125,-0.02423476591972107,-0.0021305288720633903,0.0009321063815277333,1678122731.2504926
-22.432156791794114,-4.4255406484007835,0.2521969573572278,1678122776.355444,0.6344634399414062,1.4006079711914061,8.374917407226562,0.06218481145335021,0.015046860158947694,0.03901530996966084,1678122731.2585113
-22.432156791794114,-4.4255406484007835,0.2521969573572278,1678122776.4532967,1.0869675537109373,-2.003946789550781,10.223241088867187,-0.0018642127630554665,0.007856325215733753,-0.046072686858370814,1678122731.2684848
-22.432156791794114,-4.4255406484007835,0.2521969573572278,1678122776.553421,0.6775590698242188,2.379836450195312,8.415618835449218,0.0035952674716069714,0.001731054708551505,0.0073236929977179045,1678122731.2783494
-22.432156791794114,-4.4255406484007835,0.2521969573572278,1678122776.65334,0.51714755859375,1.7381904052734374,9.4618849609375,0.033156355571486516,0.0167779148674992,0.0023968449810713144,1678122731.2883897
-22.432156791794114,-4.4255406484007835,0.2521969573572278,1678122776.7532203,-0.9888052856445312,-1.637633935546875,10.187328063964843,0.02250371121116956,0.011318434632836761,-0.02157160482964183,1678122731.2985775
-23.535386448551435,-4.54480054276064,0.39141762629151344,1678122776.8698363,1.5705962890624998,0.1005564697265625,9.648632690429688,-0.0223705531566656,0.005858954398174323,0.04394215798630743,1678122731.3084126
-23.535386448551435,-4.54480054276064,0.39141762629151344,1678122776.9533873,-0.4381389038085937,1.7429788085937499,9.325415466308593,-0.003728425526110933,0.009454221869781294,-0.015845808485971467,1678122731.3185406
-23.535386448551435,-4.54480054276064,0.39141762629151344,1678122777.0534494,0.4213794921875,0.8355763793945312,9.679757312011718,0.03994741635118857,0.007057376888709981,-0.038482677751644996,1678122731.328431
-23.535386448551435,-4.54480054276064,0.39141762629151344,1678122777.153457,0.7541735229492187,-0.14604630126953125,8.82263311767578,-0.015579492376963544,0.0027963191445832,0.013315805450396189,1678122731.3484051
-23.535386448551435,-4.54480054276064,0.39141762629151344,1678122777.2534487,0.5674257934570313,2.6408044311523438,10.024522351074218,-0.00692421883420602,-0.001331580545039619,-0.021305288720633905,1678122731.3544436
-23.535386448551435,-4.54480054276064,0.39141762629151344,1678122777.3551118,0.5506663818359374,2.427720483398437,8.645462194824217,0.029960562263391426,-0.0003994741635118857,-0.03195793308095086,1678122731.3584838
-23.535386448551435,-4.54480054276064,0.39141762629151344,1678122777.4536178,0.3064578125,-1.5777788940429687,9.184157568359375,0.03036003642690331,0.014381069886427886,0.06178533728983833,1678122731.3685074
-23.535386448551435,-4.54480054276064,0.39141762629151344,1678122777.5533395,-0.1580173095703125,0.9504980590820312,9.81862100830078,-0.04154531300523612,-0.0031957933080950856,-0.03475425222553406,1678122731.3783643
-23.535386448551435,-4.54480054276064,0.39141762629151344,1678122777.6533072,-0.4285620971679687,1.1228805786132812,9.564835632324218,0.02423476591972107,0.01038632825130903,-0.024767398137736915,1678122731.3883996
-23.535386448551435,-4.54480054276064,0.39141762629151344,1678122777.754181,0.852335791015625,0.239420166015625,9.447519750976562,0.031558458917438977,0.011584750741844684,0.0,1678122731.3983908
-24.597189924737904,-4.740545642096549,0.4379662415012717,1678122777.8694282,0.8714894042968749,-0.5817910034179687,9.801861596679688,-0.03368898778950236,0.009986854087797143,-0.01038632825130903,1678122731.4083967
-24.597189924737904,-4.740545642096549,0.4379662415012717,1678122777.9532266,1.22583125,1.407790576171875,9.248801013183593,-0.021971078993153714,0.003994741635118857,-0.0038615835806148956,1678122731.418501
-24.597189924737904,-4.740545642096549,0.4379662415012717,1678122778.0533562,0.5219359619140624,1.5801730957031248,9.117119921875,0.041012680787220264,0.007856325215733753,0.014247911831923924,1678122731.4285846
-24.597189924737904,-4.740545642096549,0.4379662415012717,1678122778.1542118,0.16998831787109375,-1.7118541870117185,8.607154968261717,-0.02090581455712202,0.011318434632836761,-0.046072686858370814,1678122731.441275
-24.597189924737904,-4.740545642096549,0.4379662415012717,1678122778.2535233,0.9002198242187499,1.8004396484374998,9.41639512939453,-0.009853696033293181,-0.007057376888709981,0.016378440703987314,1678122731.4486666
-24.597189924737904,-4.740545642096549,0.4379662415012717,1678122778.354703,0.6655880615234374,1.5562310791015623,9.552864624023437,0.0268979270098003,0.004527373853134705,-0.010253170196805066,1678122731.458485
-24.597189924737904,-4.740545642096549,0.4379662415012717,1678122778.453414,-0.4908113403320312,-1.0678139404296874,10.17056865234375,0.0055926382891664,0.01384843766841204,-0.021837920938649752,1678122731.468503
-24.597189924737904,-4.740545642096549,0.4379662415012717,1678122778.5534549,2.243366955566406,-0.3327940307617187,9.842563024902343,-0.03648530693408556,0.003062635253591124,0.05552690872815212,1678122731.4783628
-24.597189924737904,-4.740545642096549,0.4379662415012717,1678122778.6534462,-0.8068459594726562,1.2737152832031249,9.282319836425781,-0.00905474770626941,0.01344896350490015,-0.011052118523828838,1678122731.4884229
-24.597189924737904,-4.740545642096549,0.4379662415012717,1678122778.7534277,1.0965443603515623,0.5722141967773438,9.402029919433593,0.02876213977285577,0.002530003035575276,-0.03994741635118857,1678122731.4984722
-25.666563680628315,-4.896503907162696,0.48863378446549177,1678122778.8696806,1.2282254516601563,-0.833182177734375,8.398859423828124,-0.003994741635118857,0.01251685712337242,0.022903185374681445,1678122731.508408
-25.666563680628315,-4.896503907162696,0.48863378446549177,1678122778.9536154,0.7852981445312499,2.2481553588867187,10.350133776855468,-0.008255799379245638,-0.0015978966540475428,-0.015180018213451656,1678122731.5185082
-25.666563680628315,-4.896503907162696,0.48863378446549177,1678122779.0535886,0.411802685546875,0.7924807495117187,8.597578161621094,0.01890844373956259,0.0023968449810713144,-0.02170476288414579,1678122731.5284593
-25.666563680628315,-4.896503907162696,0.48863378446549177,1678122779.1531453,1.0223241088867188,-1.9776105712890624,9.409212524414063,0.025699504519264647,0.01344896350490015,0.06351639199838983,1678122731.5455883
-25.666563680628315,-4.896503907162696,0.48863378446549177,1678122779.2533376,0.5458779785156249,-0.4477157104492187,10.675745202636719,-0.03542004249805387,-0.0021305288720633903,-0.036618464988589526,1678122731.5516298
-25.666563680628315,-4.896503907162696,0.48863378446549177,1678122779.354892,0.622492431640625,0.3327940307617187,10.160991845703125,0.035952674716069714,0.005992112452678286,-0.015446334322459582,1678122731.558603
-25.666563680628315,-4.896503907162696,0.48863378446549177,1678122779.4536107,0.6943184814453125,0.47165772705078124,9.995791931152343,0.03728425526110933,0.011584750741844684,0.01731054708551505,1678122731.5685112
-25.666563680628315,-4.896503907162696,0.48863378446549177,1678122779.5534995,-0.08379705810546874,-0.4572925170898437,9.133879333496093,-0.031558458917438977,0.009986854087797143,-0.013182647395892227,1678122731.578358
-25.666563680628315,-4.896503907162696,0.48863378446549177,1678122779.6532958,0.33518823242187495,2.8730419921875,8.82263311767578,-0.019973708175594285,-0.0033289513625990473,0.010652644360316953,1678122731.5884144
-25.666563680628315,-4.896503907162696,0.48863378446549177,1678122779.7534971,0.04548983154296875,1.5682020874023437,8.499415893554687,0.06471481448892549,0.0073236929977179045,0.02583266257376861,1678122731.5984616
-26.775173047964927,-5.028542026877403,0.5681912703439593,1678122779.870228,0.8595183959960937,-1.3000515014648437,9.533711010742186,0.011052118523828838,0.008122641324741676,-0.0486026898939461,1678122731.60843
-26.775173047964927,-5.028542026877403,0.5681912703439593,1678122779.9547322,-0.2537853759765625,1.1540052001953125,8.911218579101561,0.005060006071150552,0.0001331580545039619,0.016511598758491276,1678122731.6185
-26.775173047964927,-5.028542026877403,0.5681912703439593,1678122780.0534215,0.23702596435546874,2.3535002319335936,10.156203442382813,0.04074636467821234,-0.0003994741635118857,-0.018642127630554665,1678122731.6285536
-26.775173047964927,-5.028542026877403,0.5681912703439593,1678122780.1533225,-0.36152445068359373,-0.21308394775390624,9.873687646484374,0.02170476288414579,0.0023968449810713144,-0.021971078993153714,1678122731.6500444
-26.775173047964927,-5.028542026877403,0.5681912703439593,1678122780.2534585,2.212242333984375,-0.46686932373046874,9.86411083984375,-0.02530003035575276,0.007723167161229791,0.06591323697946114,1678122731.6501932
-26.775173047964927,-5.028542026877403,0.5681912703439593,1678122780.3548543,-0.5219359619140624,1.8602946899414061,9.119514123535156,-0.008255799379245638,0.005858954398174323,-0.012383699068868458,1678122731.6585515
-26.775173047964927,-5.028542026877403,0.5681912703439593,1678122780.4531493,0.5482721801757812,1.0558429321289062,9.564835632324218,0.03222424918995878,0.010253170196805066,-0.041944787168748006,1678122731.668593
-26.775173047964927,-5.028542026877403,0.5681912703439593,1678122780.5532358,1.3215993164062498,-0.82360537109375,8.329427575683594,-0.014647385995435809,0.00905474770626941,0.03262372335347067,1678122731.67852
-26.775173047964927,-5.028542026877403,0.5681912703439593,1678122780.6535823,0.009576806640625,3.0502129150390624,10.376469995117187,-0.030493194481407273,0.0023968449810713144,-0.024101607865217107,1678122731.6884472
-26.775173047964927,-5.028542026877403,0.5681912703439593,1678122780.7534235,0.20350714111328125,2.01112939453125,8.566453540039062,0.014647385995435809,-0.002530003035575276,-0.02583266257376861,1678122731.698485
-27.65859174740035,-3.921180588658899,-0.3296244805678725,1678122780.8684137,0.6464344482421874,-1.3096283081054687,9.083601098632812,0.027563717282320117,0.016644756812995237,0.0671116594699968,1678122731.708446
-27.65859174740035,-3.921180588658899,-0.3296244805678725,1678122780.9531019,0.3902548706054687,-0.8355763793945312,10.793061083984375,-0.038482677751644996,0.012117382959860534,-0.04261057744126781,1678122731.7185497
,,,,-0.28012159423828126,1.235408056640625,9.732429748535155,0.01611212459497939,0.011052118523828838,-0.02090581455712202,1678122731.728505
,,,,1.2497732666015624,0.7637503295898437,9.562441430664062,0.021438446775137867,0.01384843766841204,-0.0023968449810713144,1678122731.7423866
,,,,-0.1484405029296875,-0.39743747558593745,9.816226806640625,-0.034354778062022175,0.015579492376963544,-0.010785802414820914,1678122731.7487912
,,,,1.656787548828125,1.9584569580078124,9.18655177001953,-0.02583266257376861,-0.0003994741635118857,0.0019973708175594286,1678122731.7586508
,,,,-0.1197100830078125,1.8746598999023436,8.8489693359375,0.028495823663847848,0.012916331286884304,0.012250541014364496,1678122731.7687058
,,,,0.2561795776367187,-1.139639990234375,8.932766394042968,-0.0010652644360316951,0.007456851052221866,-0.037550571370117254,1678122731.7784257
,,,,0.6440402465820312,1.848323681640625,8.817844714355468,-0.01890844373956259,0.0010652644360316951,0.008522115488253561,1678122731.788498
,,,,0.6488286499023437,1.5825672973632812,9.502586389160156,0.02716424311880823,0.00346210941710301,-0.017576863194522972,1678122731.7984633
,,,,0.6272808349609375,-0.6967126831054687,10.268730920410155,0.0029294771990871615,0.0023968449810713144,-0.022770027320177483,1678122731.8086376
